File: Data/Raman/2018-3-19 - Pesticide/Organized/dark_RamanShift_03.txt
Data from empty plastic_RamanShift_05.txt Node

Date: Mon Mar 19 11:57:44 IST 2018
User: aro
Spectrometer: QEPB0276
Trigger mode: 0
Integration Time (sec): 5.000000E0
Scans to average: 1
Electric dark correction enabled: true
Nonlinearity correction enabled: false
Boxcar width: 0
XAxis mode: Raman Shifts
Number of Pixels in Spectrum: 1044
>>>>>Begin Spectral Data<<<<<
160.701	-0.8
166.742	-3.8
172.777	2.2
178.805	1.2
184.826	0.2
190.841	-0.8
196.849	3.2
202.85	2.2
208.845	-3.8
214.833	0.2
220.815	0.2
226.789	-0.8
232.758	-0.8
238.719	1.2
244.674	0.2
250.623	1.2
256.565	-0.8
262.5	-5.8
268.429	-0.8
274.351	-1.8
280.267	1.2
286.176	0.2
292.079	-0.8
297.975	1.2
303.865	3.2
309.748	3.2
315.625	-1.8
321.495	-1.8
327.359	-3.8
333.217	-1.8
339.068	-0.8
344.912	-0.8
350.751	0.2
356.583	3.2
362.408	1.2
368.227	-2.8
374.04	-1.8
379.847	0.2
385.647	0.2
391.44	0.2
397.228	0.2
403.009	0.2
408.784	-0.8
414.553	2.2
420.315	1.2
426.071	6.2
431.821	1.2
437.565	-2.8
443.302	-3.8
449.033	1.2
454.758	1.2
460.477	-0.8
466.189	2.2
471.896	-2.8
477.596	2.2
483.29	1.2
488.978	-0.8
494.66	-1.8
500.335	2.2
506.005	-3.8
511.668	-1.8
517.325	0.2
522.977	-1.8
528.622	0.2
534.261	0.2
539.894	-2.8
545.521	-0.8
551.141	-0.8
556.756	-0.8
562.365	-5.8
567.968	-2.8
573.565	-0.8
579.155	-4.8
584.74	-2.8
590.319	2.2
595.892	0.2
601.459	2.2
607.02	2.2
612.575	-0.8
618.124	0.2
623.667	0.2
629.204	-1.8
634.735	-1.8
640.261	-0.8
645.781	-3.8
651.294	-0.8
656.802	2.2
662.304	1.2
667.8	0.2
673.29	-4.8
678.775	-1.8
684.254	-2.8
689.726	-4.8
695.193	-0.8
700.655	2.2
706.11	4.2
711.56	2.2
717.004	3.2
722.442	-1.8
727.874	-0.8
733.301	-5.8
738.722	-1.8
744.137	-1.8
749.547	-6.8
754.951	-1.8
760.349	1.2
765.741	2.2
771.128	2.2
776.509	0.2
781.885	2.2
787.254	1.2
792.618	-4.8
797.977	-0.8
803.33	0.2
808.677	-0.8
814.019	0.2
819.355	4.2
824.686	-0.8
830.011	0.2
835.33	-2.8
840.644	-0.8
845.952	-0.8
851.255	-2.8
856.552	1.2
861.844	1.2
867.13	1.2
872.41	3.2
877.686	-2.8
882.955	-1.8
888.219	-0.8
893.478	1.2
898.731	2.2
903.979	-0.8
909.221	4.2
914.458	1.2
919.69	0.2
924.916	2.2
930.136	1.2
935.351	0.2
940.561	-0.8
945.766	-0.8
950.965	-0.8
956.158	0.2
961.347	0.2
966.529	1.2
971.707	-7.8
976.879	0.2
982.046	0.2
987.208	0.2
992.364	-0.8
997.515	0.2
1002.66	4.2
1007.801	5.2
1012.936	-3.8
1018.066	2.2
1023.19	-4.8
1028.309	-2.8
1033.423	-4.8
1038.532	1.2
1043.636	3.2
1048.734	3.2
1053.827	6.2
1058.915	-1.8
1063.998	-2.8
1069.075	-2.8
1074.147	-4.8
1079.214	-2.8
1084.276	-0.8
1089.333	2.2
1094.385	1.2
1099.431	1.2
1104.472	1.2
1109.509	0.2
1114.54	-1.8
1119.565	-0.8
1124.586	-0.8
1129.602	-4.8
1134.613	-1.8
1139.618	0.2
1144.619	5.2
1149.614	1.2
1154.604	-2.8
1159.589	2.2
1164.57	0.2
1169.545	0.2
1174.515	-1.8
1179.48	-0.8
1184.44	-0.8
1189.395	-1.8
1194.345	1.2
1199.29	3.2
1204.23	0.2
1209.165	0.2
1214.095	-2.8
1219.021	-0.8
1223.941	1.2
1228.856	-0.8
1233.766	-0.8
1238.672	1.2
1243.572	-0.8
1248.467	1.2
1253.358	1.2
1258.244	3.2
1263.124	0.2
1268	-0.8
1272.871	2.2
1277.737	-1.8
1282.599	0.2
1287.455	0.2
1292.306	1.2
1297.153	-0.8
1301.995	-1.8
1306.832	-1.8
1311.664	-1.8
1316.491	2.2
1321.314	5.2
1326.132	0.2
1330.945	-0.8
1335.753	-0.8
1340.556	-1.8
1345.354	-0.8
1350.148	2.2
1354.937	1.2
1359.722	1.2
1364.501	1.2
1369.276	3.2
1374.046	1.2
1378.811	-2.8
1383.572	-5.8
1388.327	0.2
1393.079	-0.8
1397.825	2.2
1402.567	5.2
1407.304	0.2
1412.036	2.2
1416.764	0.2
1421.487	0.2
1426.205	-2.8
1430.919	2.2
1435.628	-1.8
1440.333	0.2
1445.032	2.2
1449.727	0.2
1454.418	6.2
1459.104	3.2
1463.785	-2.8
1468.462	-2.8
1473.134	-2.8
1477.802	-1.8
1482.465	-4.8
1487.123	2.2
1491.777	2.2
1496.426	1.2
1501.071	2.2
1505.711	1.2
1510.347	-0.8
1514.978	-0.8
1519.604	-0.8
1524.226	-3.8
1528.844	-2.8
1533.457	0.2
1538.065	4.2
1542.669	1.2
1547.269	0.2
1551.864	-1.8
1556.454	0.2
1561.041	-2.8
1565.622	-5.8
1570.199	-2.8
1574.772	-1.8
1579.34	-0.8
1583.904	3.2
1588.464	-0.8
1593.019	-1.8
1597.569	0.2
1602.115	0.2
1606.657	-2.8
1611.195	-1.8
1615.728	-2.8
1620.256	0.2
1624.78	3.2
1629.3	2.2
1633.816	1.2
1638.327	3.2
1642.834	1.2
1647.336	-1.8
1651.834	-3.8
1656.328	-1.8
1660.817	-2.8
1665.302	0.2
1669.783	-2.8
1674.259	1.2
1678.732	0.2
1683.199	-1.8
1687.663	0.2
1692.122	-3.8
1696.577	-1.8
1701.028	0.2
1705.474	-3.8
1709.917	-1.8
1714.355	-3.8
1718.788	1.2
1723.218	1.2
1727.643	0.2
1732.064	0.2
1736.481	-2.8
1740.893	-1.8
1745.301	1.2
1749.705	1.2
1754.105	1.2
1758.501	-0.8
1762.893	-1.8
1767.28	-1.8
1771.663	0.2
1776.042	-4.8
1780.417	-0.8
1784.787	1.2
1789.154	-3.8
1793.516	1.2
1797.874	-1.8
1802.228	0.2
1806.578	-3.8
1810.924	1.2
1815.266	-1.8
1819.603	1.2
1823.937	6.2
1828.266	-0.8
1832.591	0.2
1836.913	-2.8
1841.23	-1.8
1845.543	0.2
1849.852	1.2
1854.156	-0.8
1858.457	0.2
1862.754	5.2
1867.047	2.2
1871.335	2.2
1875.62	-1.8
1879.9	0.2
1884.177	0.2
1888.449	-1.8
1892.718	2.2
1896.982	1.2
1901.243	1.2
1905.499	2.2
1909.752	2.2
1914	-1.8
1918.245	-3.8
1922.485	-2.8
1926.722	-1.8
1930.954	-0.8
1935.183	-0.8
1939.408	2.2
1943.628	4.2
1947.845	4.2
1952.058	5.2
1956.267	-3.8
1960.472	-5.8
1964.673	-2.8
1968.87	-5.8
1973.063	1.2
1977.252	0.2
1981.438	1.2
1985.619	1.2
1989.797	0.2
1993.971	-3.8
1998.14	-2.8
2002.306	-4.8
2006.469	-0.8
2010.627	0.2
2014.781	2.2
2018.932	3.2
2023.078	2.2
2027.221	2.2
2031.36	-0.8
2035.495	-0.8
2039.627	-2.8
2043.754	-4.8
2047.878	-1.8
2051.998	1.2
2056.114	1.2
2060.226	5.2
2064.334	0.2
2068.439	-1.8
2072.54	0.2
2076.637	-0.8
2080.73	-2.8
2084.82	0.2
2088.906	1.2
2092.988	-3.8
2097.066	-0.8
2101.14	1.2
2105.211	1.2
2109.278	1.2
2113.342	-1.8
2117.401	1.2
2121.457	0.2
2125.509	2.2
2129.558	0.2
2133.602	-1.8
2137.643	-4.8
2141.681	-0.8
2145.714	-0.8
2149.744	-0.8
2153.77	2.2
2157.793	6.2
2161.812	4.2
2165.827	-1.8
2169.838	-1.8
2173.846	-4.8
2177.851	-2.8
2181.851	-1.8
2185.848	1.2
2189.841	1.2
2193.831	-0.8
2197.817	5.2
2201.799	2.2
2205.778	1.2
2209.753	-0.8
2213.725	-2.8
2217.693	-1.8
2221.657	-3.8
2225.618	-2.8
2229.575	1.2
2233.529	1.2
2237.479	0.2
2241.425	-0.8
2245.368	4.2
2249.307	-2.8
2253.243	-0.8
2257.175	1.2
2261.104	3.2
2265.029	0.2
2268.95	-2.8
2272.868	-1.8
2276.783	-1.8
2280.694	0.2
2284.601	3.2
2288.505	2.2
2292.405	2.2
2296.302	1.2
2300.195	2.2
2304.085	-0.8
2307.971	-2.8
2311.854	-3.8
2315.734	-0.8
2319.609	-1.8
2323.482	0.2
2327.351	-0.8
2331.216	5.2
2335.078	1.2
2338.937	2.2
2342.792	-4.8
2346.643	-1.8
2350.492	-3.8
2354.336	-4.8
2358.178	-2.8
2362.015	-0.8
2365.85	3.2
2369.681	2.2
2373.508	-0.8
2377.333	0.2
2381.153	-1.8
2384.971	-0.8
2388.785	-1.8
2392.595	0.2
2396.402	0.2
2400.206	2.2
2404.007	-0.8
2407.804	1.2
2411.597	0.2
2415.388	0.2
2419.174	1.2
2422.958	2.2
2426.738	-2.8
2430.515	0.2
2434.289	1.2
2438.059	0.2
2441.825	-3.8
2445.589	-2.8
2449.349	0.2
2453.106	4.2
2456.859	1.2
2460.61	1.2
2464.356	4.2
2468.1	-0.8
2471.84	-4.8
2475.577	-2.8
2479.311	-1.8
2483.041	5.2
2486.768	0.2
2490.492	-2.8
2494.213	4.2
2497.93	-0.8
2501.644	-0.8
2505.355	-0.8
2509.062	-3.8
2512.766	1.2
2516.467	-1.8
2520.165	-1.8
2523.859	1.2
2527.551	1.2
2531.239	1.2
2534.923	2.2
2538.605	-1.8
2542.283	-4.8
2545.958	-0.8
2549.63	-1.8
2553.299	1.2
2556.964	3.2
2560.626	-0.8
2564.285	-1.8
2567.941	-0.8
2571.594	-3.8
2575.243	-3.8
2578.89	0.2
2582.533	-0.8
2586.173	0.2
2589.809	-1.8
2593.443	-1.8
2597.073	-0.8
2600.701	-0.8
2604.325	0.2
2607.946	0.2
2611.564	4.2
2615.178	5.2
2618.79	0.2
2622.398	0.2
2626.004	0.2
2629.606	-0.8
2633.205	-1.8
2636.801	-0.8
2640.394	0.2
2643.983	2.2
2647.57	2.2
2651.153	4.2
2654.734	4.2
2658.311	-1.8
2661.885	-4.8
2665.456	-4.8
2669.025	-0.8
2672.589	2.2
2676.151	-0.8
2679.71	6.2
2683.266	2.2
2686.819	7.2
2690.368	3.2
2693.915	-1.8
2697.458	-0.8
2700.999	-0.8
2704.536	-1.8
2708.071	0.2
2711.602	3.2
2715.13	4.2
2718.656	1.2
2722.178	0.2
2725.697	-1.8
2729.214	0.2
2732.727	1.2
2736.237	0.2
2739.744	3.2
2743.249	2.2
2746.75	0.2
2750.248	-0.8
2753.743	0.2
2757.236	-0.8
2760.725	-1.8
2764.211	-0.8
2767.695	1.2
2771.175	0.2
2774.652	-0.8
2778.127	-0.8
2781.598	-0.8
2785.067	-2.8
2788.532	-0.8
2791.995	-1.8
2795.455	2.2
2798.911	0.2
2802.365	2.2
2805.816	0.2
2809.264	2.2
2812.709	0.2
2816.151	0.2
2819.59	-2.8
2823.026	-1.8
2826.46	-2.8
2829.89	1.2
2833.318	0.2
2836.742	0.2
2840.164	3.2
2843.583	-0.8
2846.999	-2.8
2850.412	0.2
2853.822	-2.8
2857.229	-0.8
2860.634	-1.8
2864.035	1.2
2867.434	2.2
2870.83	0.2
2874.223	2.2
2877.613	2.2
2881	-5.8
2884.385	-2.8
2887.766	-2.8
2891.145	-0.8
2894.521	-0.8
2897.894	3.2
2901.264	2.2
2904.631	-0.8
2907.996	2.2
2911.358	-0.8
2914.717	-0.8
2918.073	-2.8
2921.426	-0.8
2924.777	-1.8
2928.124	0.2
2931.469	1.2
2934.811	0.2
2938.15	3.2
2941.487	-0.8
2944.821	-0.8
2948.152	-1.8
2951.48	-0.8
2954.805	-1.8
2958.128	-0.8
2961.447	0.2
2964.765	-0.8
2968.079	7.2
2971.39	1.2
2974.699	-0.8
2978.005	-4.8
2981.308	-1.8
2984.609	-4.8
2987.907	-3.8
2991.202	0.2
2994.494	1.2
2997.784	3.2
3001.07	3.2
3004.355	-0.8
3007.636	0.2
3010.915	-0.8
3014.191	-2.8
3017.464	-2.8
3020.734	2.2
3024.002	-1.8
3027.267	3.2
3030.53	2.2
3033.789	2.2
3037.046	-2.8
3040.301	-0.8
3043.552	-1.8
3046.801	-0.8
3050.048	-1.8
3053.291	-2.8
3056.532	-0.8
3059.771	2.2
3063.006	1.2
3066.239	-0.8
3069.469	3.2
3072.697	-0.8
3075.922	0.2
3079.144	-0.8
3082.364	-2.8
3085.581	-2.8
3088.795	-0.8
3092.007	0.2
3095.216	-0.8
3098.423	-0.8
3101.627	-1.8
3104.828	2.2
3108.026	-0.8
3111.222	-0.8
3114.416	0.2
3117.607	1.2
3120.795	0.2
3123.98	2.2
3127.163	0.2
3130.344	0.2
3133.521	4.2
3136.696	1.2
3139.869	-0.8
3143.039	3.2
3146.206	-0.8
3149.371	-2.8
3152.533	0.2
3155.693	-0.8
3158.85	-2.8
3162.005	-0.8
3165.157	-2.8
3168.306	-2.8
3171.453	0.2
3174.597	-1.8
3177.739	-0.8
3180.878	-1.8
3184.014	-4.8
3187.149	-2.8
3190.28	-2.8
3193.409	1.2
3196.536	-0.8
3199.659	3.2
3202.781	2.2
3205.9	1.2
3209.016	-1.8
3212.13	0.2
3215.241	-1.8
3218.35	-0.8
3221.456	-2.8
3224.56	3.2
3227.661	2.2
3230.76	5.2
3233.856	2.2
3236.95	2.2
3240.041	-2.8
3243.13	-5.8
3246.216	-1.8
3249.3	0.2
3252.382	2.2
3255.46	6.2
3258.537	2.2
3261.611	3.2
3264.682	1.2
3267.751	-1.8
3270.818	-3.8
3273.882	-1.8
3276.943	-3.8
3280.002	-1.8
3283.059	0.2
3286.113	1.2
3289.165	-0.8
3292.214	1.2
3295.261	1.2
3298.306	0.2
3301.348	-3.8
3304.387	-2.8
3307.425	-0.8
3310.459	3.2
3313.492	-0.8
3316.521	1.2
3319.549	2.2
3322.574	1.2
3325.597	-0.8
3328.617	-2.8
3331.635	-1.8
3334.65	-4.8
3337.663	-1.8
3340.674	1.2
3343.682	-0.8
3346.688	1.2
3349.691	2.2
3352.692	1.2
3355.691	-4.8
3358.687	-3.8
3361.681	-1.8
3364.673	0.2
3367.662	-2.8
3370.649	3.2
3373.633	1.2
3376.615	2.2
3379.595	-1.8
3382.572	2.2
3385.547	1.2
3388.52	-2.8
3391.49	2.2
3394.458	0.2
3397.424	-2.8
3400.387	-0.8
3403.348	0.2
3406.307	-1.8
3409.263	2.2
3412.217	-1.8
3415.168	0.2
3418.118	0.2
3421.065	3.2
3424.009	1.2
3426.951	0.2
3429.891	-2.8
3432.829	-3.8
3435.764	3.2
3438.697	-1.8
3441.628	1.2
3444.557	4.2
3447.483	-0.8
3450.407	0.2
3453.328	0.2
3456.247	-3.8
3459.164	-1.8
3462.079	2.2
3464.991	0.2
3467.902	-2.8
3470.809	2.2
3473.715	4.2
3476.618	3.2
3479.519	-1.8
3482.418	0.2
3485.315	-2.8
3488.209	-1.8
3491.101	0.2
3493.99	-1.8
3496.878	1.2
3499.763	3.2
3502.646	3.2
3505.527	1.2
3508.405	1.2
3511.281	-1.8
3514.155	-0.8
3517.027	-0.8
3519.897	-1.8
3522.764	0.2
3525.629	-0.8
3528.492	3.2
3531.352	-0.8
3534.211	1.2
3537.067	-1.8
3539.921	-2.8
3542.773	-0.8
3545.622	1.2
3548.469	-2.8
3551.315	1.2
3554.157	0.2
3556.998	1.2
3559.837	-0.8
3562.673	-0.8
3565.507	0.2
3568.339	0.2
3571.169	0.2
3573.996	2.2
3576.822	-0.8
3579.645	0.2
3582.466	-3.8
3585.285	1.2
3588.101	0.2
3590.916	2.2
3593.728	3.2
3596.538	1.2
3599.346	0.2
3602.152	0.2
3604.956	-0.8
3607.757	-1.8
3610.556	-1.8
3613.354	-0.8
3616.149	-1.8
3618.942	1.2
3621.732	1.2
3624.521	3.2
3627.307	1.2
3630.092	1.2
3632.874	1.2
3635.654	1.2
3638.432	-1.8
3641.208	1.2
3643.982	1.2
3646.753	1.2
3649.523	0.2
3652.29	3.2
3655.055	-1.8
3657.818	-1.8
3660.579	4.2
3663.338	-2.8
3666.095	0.2
3668.849	1.2
3671.602	-0.8
3674.352	4.2
3677.101	-1.8
3679.847	-0.8
3682.591	2.2
3685.333	-0.8
3688.073	-0.8
3690.811	2.2
3693.547	-0.8
3696.281	-2.8
3699.013	-0.8
3701.742	3.2
3704.47	1.2
3707.195	1.2
3709.919	0.2
3712.64	-1.8
3715.359	3.2
3718.076	1.2
3720.792	1.2
3723.505	0.2
3726.216	-6.8
3728.925	0.2
3731.632	-1.8
3734.336	-1.8
3737.039	5.2
3739.74	2.2
3742.439	3.2
3745.136	2.2
3747.83	0.2
3750.523	-1.8
3753.213	-4.8
3755.902	-0.8
3758.589	0.2
3761.273	3.2
3763.956	1.2
3766.636	1.2
3769.315	0.2
3771.991	1.2
3774.665	-0.8
3777.338	0.2
3780.008	0.2
3782.677	-1.8
3785.343	0.2
3788.007	-1.8
3790.67	1.2
3793.33	2.2
3795.989	0.2
3798.645	-2.8
3801.299	1.2
3803.952	0.2
3806.602	1.2
3809.251	1.2
3811.897	-2.8
3814.542	-0.8
3817.184	-0.8
3819.825	-0.8
3822.463	-0.8
3825.1	0.2
3827.735	-0.8
3830.367	1.2
3832.998	0.2
3835.627	4.2
3838.253	4.2
3840.878	-4.8
3843.501	-1.8
3846.122	-0.8
3848.741	2.2
3851.358	1.2
3853.973	3.2
3856.586	1.2
3859.197	3.2
3861.806	-0.8
3864.414	-3.8
3867.019	-3.8
3869.622	-3.8
3872.224	-1.8
3874.823	0.2
3877.421	0.2
3880.016	-1.8
3882.61	-0.8
3885.202	0.2
3887.792	0.2
3890.38	-0.8
3892.966	0.2
3895.55	0.2
3898.132	-0.8
3900.713	1.2
3903.291	3.2
3905.868	2.2
3908.442	4.2
3911.015	-2.8
3913.586	1.2
3916.155	2.2
3918.722	0.2
3921.287	0.2
3923.85	0.2
3926.411	-0.8
3928.971	-0.8
3931.528	2.2
3934.084	-0.8
3936.638	0.2
3939.19	0.2
3941.74	1.2
3944.288	-0.8
3946.834	1.2
3949.378	2.2
3951.921	3.2
3954.462	-3.8
3957	3.2
3959.537	6.2
3962.072	0.2
3964.606	0.2
3967.137	0.2
3969.667	2.2
3972.194	-3.8
3974.72	-0.8
3977.244	-3.8
3979.766	2.2
3982.286	-2.8
3984.805	3.2
3987.321	3.2
3989.836	0.2
3992.349	4.2
3994.86	-0.8
3997.369	-3.8
3999.877	-1.8
4002.382	-5.8
4004.886	-2.8
4007.388	0.2
4009.888	-0.8
4012.386	3.2
4014.883	0.2
4017.377	3.2
4019.87	2.2
4022.361	1.2
4024.85	-3.8
4027.338	-3.8
4029.823	-3.8
4032.307	0.2
4034.789	3.2
4037.269	1.2
4039.747	1.2
4042.224	4.2
4044.699	-2.8
4047.172	0.2
4049.643	-2.8
4052.112	-0.8
4054.58	-3.8
4057.046	0.2
4059.51	1.2
4061.972	2.2
4064.432	1.2
4066.891	1.2
4069.348	2.2
4071.803	-0.8
4074.256	-3.8
4076.708	-0.8
4079.158	1.2
4081.606	-2.8
4084.052	3.2
4086.497	2.2
4088.939	5.2
4091.38	2.2
4093.819	-0.8
4096.257	-3.8
4098.693	-1.8
4101.127	1.2
4103.559	4.2
4105.989	5.2
4108.418	4.2
4110.845	1.2
4113.27	-1.8
4115.694	-2.8
4118.115	0.2
4120.535	-0.8
4122.954	-1.8
4125.37	-6.8
4127.785	-4.8
4130.198	-0.8
4132.609	1.2
4135.019	4.2
4137.427	1.2
4139.833	-0.8
4142.237	-3.8