File: Data/Raman/2017-08-24 - Glass, alluminum 108/Glass/glass - 10s - I=1, bc=5_RamanShift_2.txt
Data from subtilis colony - 10s - I=1, bc=5_RamanShift_2.txt Node

Date: Thu Aug 24 11:31:58 IDT 2017
User: aro
Spectrometer: QEPB0276
Trigger mode: 0
Integration Time (sec): 1.000000E1
Scans to average: 1
Electric dark correction enabled: true
Nonlinearity correction enabled: false
Boxcar width: 5
XAxis mode: Raman Shifts
Number of Pixels in Spectrum: 1044
>>>>>Begin Spectral Data<<<<<
160.701	239.38
166.742	398.45
172.777	571.62
178.805	729.43
184.826	857.98
190.841	978.69
196.849	1178.33
202.85	1387.33
208.845	1596.33
214.833	1806.69
220.815	1999.42
226.789	2146.15
232.758	2267.97
238.719	2338.42
244.674	2402.97
250.623	2464.6
256.565	2529.24
262.5	2590.15
268.429	2652.69
274.351	2714.69
280.267	2778.15
286.176	2849.42
292.079	2916.24
297.975	2993.15
303.865	3080.15
309.748	3165.33
315.625	3244.97
321.495	3334.6
327.359	3410.88
333.217	3487.69
339.068	3557.42
344.912	3617.78
350.751	3671.6
356.583	3725.88
362.408	3760.69
368.227	3785.88
374.04	3798.42
379.847	3805.78
385.647	3821.24
391.44	3834.51
397.228	3848.06
403.009	3847.42
408.784	3827.97
414.553	3801.42
420.315	3772.15
426.071	3735.97
431.821	3702.88
437.565	3669.78
443.302	3631.78
449.033	3583.6
454.758	3523.15
460.477	3462.78
466.189	3418.78
471.896	3378.33
477.596	3341.6
483.29	3301.33
488.978	3258.51
494.66	3217.6
500.335	3175.06
506.005	3140.33
511.668	3106.97
517.325	3076.06
522.977	3048.06
528.622	3021.88
534.261	3000.06
539.894	2976.33
545.521	2967.33
551.141	2953.15
556.756	2948.24
562.365	2942.6
567.968	2937.97
573.565	2930.97
579.155	2922.69
584.74	2913.33
590.319	2899.78
595.892	2882.42
601.459	2868.24
607.02	2849.24
612.575	2836.15
618.124	2830.69
623.667	2822.51
629.204	2812.88
634.735	2797.42
640.261	2784.33
645.781	2762.06
651.294	2747.15
656.802	2737.24
662.304	2724.42
667.8	2712.06
673.29	2694.15
678.775	2675.42
684.254	2651.06
689.726	2628.88
695.193	2612.88
700.655	2595.06
706.11	2578.33
711.56	2565.33
717.004	2554.42
722.442	2535.69
727.874	2527.51
733.301	2518.06
738.722	2506.15
744.137	2497.69
749.547	2489.69
754.951	2480.51
760.349	2475.15
765.741	2473.78
771.128	2466.69
776.509	2458.24
781.885	2452.06
787.254	2441.97
792.618	2426.06
797.977	2421.78
803.33	2408.06
808.677	2394.97
814.019	2384.06
819.355	2376.78
824.686	2364.42
830.011	2358.6
835.33	2354.24
840.644	2350.6
845.952	2343.06
851.255	2346.97
856.552	2341.42
861.844	2337.97
867.13	2337.69
872.41	2338.69
877.686	2334.42
882.955	2330.42
888.219	2328.15
893.478	2330.51
898.731	2335.69
903.979	2340.78
909.221	2343.78
914.458	2353.06
919.69	2360.51
924.916	2368.88
930.136	2390.06
935.351	2397.69
940.561	2413.51
945.766	2426.15
950.965	2437.97
956.158	2440.33
961.347	2451.88
966.529	2459.15
971.707	2472.33
976.879	2487.6
982.046	2508.97
987.208	2533.97
992.364	2567.88
997.515	2608.88
1002.66	2651.24
1007.801	2701.33
1012.936	2756.88
1018.066	2807.97
1023.19	2872.42
1028.309	2933.69
1033.423	2986.88
1038.532	3054.51
1043.636	3111.51
1048.734	3183.88
1053.827	3256.6
1058.915	3342.88
1063.998	3435.51
1069.075	3539.97
1074.147	3659.24
1079.214	3770.24
1084.276	3904.33
1089.333	4042.42
1094.385	4176.97
1099.431	4315.06
1104.472	4454.42
1109.509	4589.88
1114.54	4732.6
1119.565	4879.78
1124.586	5022.06
1129.602	5170.51
1134.613	5326.69
1139.618	5490.42
1144.619	5664.33
1149.614	5841.33
1154.604	6027.15
1159.589	6217.51
1164.57	6403.24
1169.545	6586.88
1174.515	6767.88
1179.48	6950.33
1184.44	7134.88
1189.395	7323.78
1194.345	7510.88
1199.29	7704.6
1204.23	7901.6
1209.165	8102.69
1214.095	8318.6
1219.021	8531.33
1223.941	8743.24
1228.856	8944.88
1233.766	9135.42
1238.672	9312.69
1243.572	9473.69
1248.467	9621.42
1253.358	9774.06
1258.244	9917.33
1263.124	10083.6
1268	10272.51
1272.871	10490.06
1277.737	10759.42
1282.599	11089.33
1287.455	11492.33
1292.306	11967.51
1297.153	12504.42
1301.995	13100.88
1306.832	13749.78
1311.664	14438.88
1316.491	15144.78
1321.314	15875.97
1326.132	16596.51
1330.945	17298.33
1335.753	17954.97
1340.556	18552.97
1345.354	19080.24
1350.148	19537.69
1354.937	19924.24
1359.722	20238.6
1364.501	20487.15
1369.276	20664.88
1374.046	20766.78
1378.811	20802.06
1383.572	20791.69
1388.327	20723.78
1393.079	20625.33
1397.825	20499.97
1402.567	20367.24
1407.304	20211.78
1412.036	20048.24
1416.764	19884.42
1421.487	19717.69
1426.205	19551.15
1430.919	19365.88
1435.628	19170.42
1440.333	18965.15
1445.032	18739.6
1449.727	18511.97
1454.418	18254.88
1459.104	17991.24
1463.785	17703.88
1468.462	17432.97
1473.134	17145.88
1477.802	16870.51
1482.465	16603.88
1487.123	16360.06
1491.777	16135.06
1496.426	15927.69
1501.071	15733.88
1505.711	15547.51
1510.347	15353.88
1514.978	15157.78
1519.604	14946.78
1524.226	14739.6
1528.844	14513.6
1533.457	14302.88
1538.065	14083.06
1542.669	13882.33
1547.269	13680.6
1551.864	13508.97
1556.454	13361.69
1561.041	13240.42
1565.622	13148.78
1570.199	13060.42
1574.772	12988.97
1579.34	12917.33
1583.904	12840.42
1588.464	12746.42
1593.019	12644.33
1597.569	12538.06
1602.115	12411.78
1606.657	12288.78
1611.195	12161.69
1615.728	12038.6
1620.256	11908.24
1624.78	11798.51
1629.3	11719.42
1633.816	11654.15
1638.327	11605.24
1642.834	11570.42
1647.336	11535.15
1651.834	11502.51
1656.328	11455.33
1660.817	11393.51
1665.302	11319.42
1669.783	11224.78
1674.259	11096.24
1678.732	10937.06
1683.199	10747.97
1687.663	10547.15
1692.122	10329.97
1696.577	10122.24
1701.028	9920.24
1705.474	9720.97
1709.917	9533.88
1714.355	9354.24
1718.788	9179.6
1723.218	9003.6
1727.643	8839.97
1732.064	8691.51
1736.481	8550.97
1740.893	8413.78
1745.301	8274.69
1749.705	8129.78
1754.105	7995.51
1758.501	7869.51
1762.893	7760.15
1767.28	7657.78
1771.663	7585.88
1776.042	7518.06
1780.417	7464.42
1784.787	7410.15
1789.154	7359.42
1793.516	7306.88
1797.874	7248.15
1802.228	7190.78
1806.578	7126.24
1810.924	7075.24
1815.266	6997.78
1819.603	6964.97
1823.937	6920.78
1828.266	6889.6
1832.591	6875.42
1836.913	6877.69
1841.23	6889.42
1845.543	6916.6
1849.852	6945.69
1854.156	6979.69
1858.457	7010.69
1862.754	7033.97
1867.047	7057.15
1871.335	7073.24
1875.62	7068.15
1879.9	7052.51
1884.177	7029.6
1888.449	6998.33
1892.718	6961.78
1896.982	6910.06
1901.243	6852.97
1905.499	6791.06
1909.752	6721.88
1914	6648.51
1918.245	6568.97
1922.485	6478.15
1926.722	6373.97
1930.954	6265.24
1935.183	6130.6
1939.408	5982.88
1943.628	5811.51
1947.845	5629.06
1952.058	5437.88
1956.267	5232.78
1960.472	5029.06
1964.673	4818.51
1968.87	4612.6
1973.063	4419.33
1977.252	4225.6
1981.438	4054.33
1985.619	3888.88
1989.797	3729.97
1993.971	3599.24
1998.14	3471.97
2002.306	3350.78
2006.469	3232.88
2010.627	3121.88
2014.781	3015.24
2018.932	2905.88
2023.078	2813.51
2027.221	2711.97
2031.36	2619.88
2035.495	2532.51
2039.627	2449.06
2043.754	2375.42
2047.878	2304.69
2051.998	2238.15
2056.114	2177.78
2060.226	2130.6
2064.334	2089.24
2068.439	2045.15
2072.54	2005.24
2076.637	1960.78
2080.73	1926.15
2084.82	1882.06
2088.906	1839.33
2092.988	1796.88
2097.066	1754.88
2101.14	1716.15
2105.211	1674.88
2109.278	1625.78
2113.342	1588.69
2117.401	1539.88
2121.457	1507.78
2125.509	1468.97
2129.558	1443.51
2133.602	1410.06
2137.643	1384.6
2141.681	1353.88
2145.714	1333.42
2149.744	1306.6
2153.77	1281.51
2157.793	1263.15
2161.812	1237.33
2165.827	1212.69
2169.838	1201.51
2173.846	1179.6
2177.851	1159.24
2181.851	1142.51
2185.848	1123.24
2189.841	1109.51
2193.831	1097.06
2197.817	1083.78
2201.799	1074.06
2205.778	1062.15
2209.753	1053.06
2213.725	1044.69
2217.693	1037.69
2221.657	1025.97
2225.618	1020.97
2229.575	1013.15
2233.529	1005.69
2237.479	995.15
2241.425	982.6
2245.368	969.51
2249.307	962.42
2253.243	951.15
2257.175	941.69
2261.104	928.15
2265.029	918.69
2268.95	907.97
2272.868	895.15
2276.783	884.06
2280.694	874.97
2284.601	869.06
2288.505	859.69
2292.405	852.69
2296.302	839.33
2300.195	828.88
2304.085	817.33
2307.971	814.15
2311.854	804.6
2315.734	802.78
2319.609	796.51
2323.482	786.51
2327.351	783.88
2331.216	775.33
2335.078	770.97
2338.937	767.15
2342.792	765.6
2346.643	765.97
2350.492	766.15
2354.336	764.69
2358.178	762.24
2362.015	759.88
2365.85	760.6
2369.681	761.88
2373.508	762.78
2377.333	766.42
2381.153	759.6
2384.971	759.06
2388.785	757.51
2392.595	753.78
2396.402	749.06
2400.206	747.15
2404.007	741.6
2407.804	738.97
2411.597	740.06
2415.388	733.15
2419.174	730.88
2422.958	724.88
2426.738	721.69
2430.515	720.78
2434.289	714.78
2438.059	703.88
2441.825	702.51
2445.589	700.97
2449.349	692.15
2453.106	690.69
2456.859	682.15
2460.61	675.6
2464.356	673.97
2468.1	666.69
2471.84	661.51
2475.577	657.24
2479.311	654.33
2483.041	652.15
2486.768	650.15
2490.492	646.69
2494.213	642.06
2497.93	639.33
2501.644	632.42
2505.355	634.88
2509.062	633.51
2512.766	632.33
2516.467	628.78
2520.165	624.06
2523.859	617.88
2527.551	617.51
2531.239	609.6
2534.923	609.24
2538.605	606.06
2542.283	604.24
2545.958	597.88
2549.63	597.42
2553.299	594.88
2556.964	589.06
2560.626	586.78
2564.285	583.78
2567.941	576.51
2571.594	571.51
2575.243	571.06
2578.89	563.97
2582.533	554.6
2586.173	548.42
2589.809	545.88
2593.443	531.24
2597.073	527.42
2600.701	525.97
2604.325	519.6
2607.946	510.33
2611.564	507.51
2615.178	503.51
2618.79	494.06
2622.398	489.06
2626.004	482.88
2629.606	480.06
2633.205	471.33
2636.801	467.24
2640.394	462.33
2643.983	456.97
2647.57	452.69
2651.153	446.88
2654.734	442.06
2658.311	431.88
2661.885	433.24
2665.456	423.42
2669.025	419.06
2672.589	412.51
2676.151	412.42
2679.71	409.6
2683.266	401.88
2686.819	395.6
2690.368	393.06
2693.915	386.6
2697.458	378.15
2700.999	377.97
2704.536	372.78
2708.071	370.42
2711.602	367.24
2715.13	358.88
2718.656	357.97
2722.178	355.6
2725.697	353.51
2729.214	350.97
2732.727	347.97
2736.237	349.78
2739.744	346.97
2743.249	339.33
2746.75	342.15
2750.248	335.78
2753.743	331.24
2757.236	326.24
2760.725	327.06
2764.211	311.88
2767.695	314.51
2771.175	309.69
2774.652	306.88
2778.127	302.42
2781.598	304.97
2785.067	299.69
2788.532	297.69
2791.995	299.97
2795.455	302.15
2798.911	303.6
2802.365	301.15
2805.816	301.33
2809.264	304.6
2812.709	301.97
2816.151	306.24
2819.59	300.78
2823.026	303.42
2826.46	299.24
2829.89	299.69
2833.318	292.24
2836.742	294.15
2840.164	294.42
2843.583	292.33
2846.999	293.24
2850.412	289.78
2853.822	288.51
2857.229	293.24
2860.634	291.6
2864.035	283.15
2867.434	289.24
2870.83	284.78
2874.223	284.6
2877.613	283.33
2881	277.42
2884.385	277.88
2887.766	278.06
2891.145	271.06
2894.521	273.24
2897.894	267.78
2901.264	271.97
2904.631	270.88
2907.996	274.6
2911.358	272.15
2914.717	271.69
2918.073	270.42
2921.426	272.33
2924.777	272.97
2928.124	276.78
2931.469	279.88
2934.811	274.69
2938.15	281.97
2941.487	278.6
2944.821	286.88
2948.152	284.6
2951.48	287.78
2954.805	289.6
2958.128	295.97
2961.447	295.42
2964.765	300.69
2968.079	304.15
2971.39	312.33
2974.699	313.78
2978.005	323.69
2981.308	325.88
2984.609	331.24
2987.907	335.51
2991.202	346.24
2994.494	348.15
2997.784	355.51
3001.07	363.06
3004.355	366.06
3007.636	367.15
3010.915	373.24
3014.191	377.06
3017.464	382.42
3020.734	393.06
3024.002	395.51
3027.267	399.69
3030.53	408.33
3033.789	410.6
3037.046	415.51
3040.301	430.33
3043.552	437.51
3046.801	447.24
3050.048	459.42
3053.291	474.24
3056.532	483.6
3059.771	491.24
3063.006	505.51
3066.239	523.88
3069.469	535.78
3072.697	546.33
3075.922	562.42
3079.144	576.69
3082.364	592.24
3085.581	599.69
3088.795	618.51
3092.007	627.06
3095.216	636.51
3098.423	647.42
3101.627	658.51
3104.828	667.97
3108.026	685.33
3111.222	695.69
3114.416	711.33
3117.607	725.88
3120.795	737.24
3123.98	751.06
3127.163	760.97
3130.344	769.97
3133.521	786.97
3136.696	800.69
3139.869	813.06
3143.039	824.78
3146.206	838.51
3149.371	839.42
3152.533	849.78
3155.693	849.69
3158.85	864.06
3162.005	874.33
3165.157	880.78
3168.306	893.24
3171.453	899.15
3174.597	906.24
3177.739	914.88
3180.878	929.97
3184.014	944.15
3187.149	960.06
3190.28	981.33
3193.409	994.78
3196.536	1016.42
3199.659	1040.33
3202.781	1056.6
3205.9	1073.78
3209.016	1097.88
3212.13	1123.51
3215.241	1141.6
3218.35	1168.06
3221.456	1188.88
3224.56	1208.78
3227.661	1231.6
3230.76	1251.42
3233.856	1277.24
3236.95	1299.15
3240.041	1318.15
3243.13	1347.15
3246.216	1367.78
3249.3	1388.15
3252.382	1409.24
3255.46	1422.33
3258.537	1436.6
3261.611	1458.78
3264.682	1471.6
3267.751	1484.6
3270.818	1491.24
3273.882	1495.88
3276.943	1496.33
3280.002	1495.24
3283.059	1483.69
3286.113	1473.33
3289.165	1464.97
3292.214	1450.15
3295.261	1434.6
3298.306	1408.24
3301.348	1391.24
3304.387	1378.06
3307.425	1356.42
3310.459	1336.06
3313.492	1318.33
3316.521	1298.42
3319.549	1283.97
3322.574	1267.33
3325.597	1249.15
3328.617	1236.06
3331.635	1222.51
3334.65	1203.69
3337.663	1194.88
3340.674	1179.88
3343.682	1164.88
3346.688	1150.15
3349.691	1132.24
3352.692	1113.51
3355.691	1098.97
3358.687	1080.42
3361.681	1060.06
3364.673	1042.42
3367.662	1014.6
3370.649	997.24
3373.633	970.97
3376.615	952.33
3379.595	921.6
3382.572	906.6
3385.547	879.69
3388.52	858.88
3391.49	839.78
3394.458	822.78
3397.424	803.42
3400.387	785.15
3403.348	766.51
3406.307	752.69
3409.263	734.06
3412.217	722.33
3415.168	707.69
3418.118	694.97
3421.065	677.6
3424.009	663.42
3426.951	644.88
3429.891	630.15
3432.829	615.69
3435.764	600.06
3438.697	581.88
3441.628	567.33
3444.557	550.06
3447.483	534.69
3450.407	521.78
3453.328	503.33
3456.247	487.33
3459.164	467.88
3462.079	457.78
3464.991	442.15
3467.902	427.15
3470.809	415.33
3473.715	401.15
3476.618	387.06
3479.519	376.88
3482.418	359.88
3485.315	352.15
3488.209	340.24
3491.101	336.06
3493.99	327.06
3496.878	314.33
3499.763	309.42
3502.646	292.24
3505.527	282.69
3508.405	273.42
3511.281	262.33
3514.155	258.78
3517.027	246.6
3519.897	231.88
3522.764	227.88
3525.629	220.33
3528.492	205.06
3531.352	200.78
3534.211	193.42
3537.067	184.15
3539.921	174.06
3542.773	168.6
3545.622	161.78
3548.469	153.69
3551.315	150.97
3554.157	146.42
3556.998	136.88
3559.837	137.15
3562.673	133.78
3565.507	128.15
3568.339	120.06
3571.169	117.06
3573.996	114.15
3576.822	114.15
3579.645	105.6
3582.466	106.78
3585.285	104.51
3588.101	100.15
3590.916	93.78
3593.728	92.69
3596.538	88.42
3599.346	85.78
3602.152	81.69
3604.956	78.24
3607.757	77.51
3610.556	69.78
3613.354	72.51
3616.149	69.6
3618.942	67.24
3621.732	64.51
3624.521	56.06
3627.307	58.24
3630.092	59.6
3632.874	58.78
3635.654	55.51
3638.432	52.24
3641.208	53.06
3643.982	53.33
3646.753	46.51
3649.523	41.33
3652.29	46.33
3655.055	47.06
3657.818	42.88
3660.579	41.6
3663.338	36.06
3666.095	33.88
3668.849	30.06
3671.602	35.51
3674.352	28.97
3677.101	32.97
3679.847	32.06
3682.591	28.6
3685.333	25.24
3688.073	28.42
3690.811	24.33
3693.547	20.42
3696.281	20.42
3699.013	22.15
3701.742	20.78
3704.47	17.6
3707.195	17.51
3709.919	15.88
3712.64	13.88
3715.359	10.33
3718.076	13.78
3720.792	12.15
3723.505	9.97
3726.216	7.88
3728.925	5.06
3731.632	5.42
3734.336	2.42
3737.039	1.69
3739.74	2.06
3742.439	-4.76
3745.136	3.51
3747.83	0.69
3750.523	1.06
3753.213	-15.49
3755.902	0.42
3758.589	-7.85
3761.273	-1.85
3763.956	-6.03
3766.636	-5.58
3769.315	-9.12
3771.991	-9.49
3774.665	-13.67
3777.338	-14.03
3780.008	-13.12
3782.677	-16.4
3785.343	-18.12
3788.007	-22.12
3790.67	-13.49
3793.33	-17.03
3795.989	-20.03
3798.645	-18.03
3801.299	-22.22
3803.952	-23.22
3806.602	-21.58
3809.251	-27.76
3811.897	-22.67
3814.542	-25.12
3817.184	-25.58
3819.825	-28.03
3822.463	-27.76
3825.1	-27.58
3827.735	-30.58
3830.367	-28.4
3832.998	-25.22
3835.627	-28.31
3838.253	-29.76
3840.878	-30.58
3843.501	-33.22
3846.122	-31.31
3848.741	-31.12
3851.358	-30.03
3853.973	-34.58
3856.586	-31.85
3859.197	-28.12
3861.806	-31.76
3864.414	-30.22
3867.019	-28.67
3869.622	-25.31
3872.224	-24.85
3874.823	-20.94
3877.421	-24.12
3880.016	-20.85
3882.61	-23.4
3885.202	-18.49
3887.792	-20.4
3890.38	-19.94
3892.966	-24.03
3895.55	-26.94
3898.132	-26.49
3900.713	-27.58
3903.291	-33.4
3905.868	-35.49
3908.442	-33.67
3911.015	-33.76
3913.586	-37.58
3916.155	-33.67
3918.722	-33.12
3921.287	-34.58
3923.85	-36.67
3926.411	-35.31
3928.971	-33.31
3931.528	-39.49
3934.084	-38.03
3936.638	-36.49
3939.19	-39.49
3941.74	-35.03
3944.288	-33.94
3946.834	-35.67
3949.378	-32.03
3951.921	-32.12
3954.462	-38.58
3957	-32.22
3959.537	-35.94
3962.072	-39.49
3964.606	-35.03
3967.137	-32.85
3969.667	-32.85
3972.194	-32.4
3974.72	-34.94
3977.244	-39.49
3979.766	-38.94
3982.286	-37.03
3984.805	-36.94
3987.321	-35.31
3989.836	-35.4
3992.349	-37.22
3994.86	-34.67
3997.369	-37.22
3999.877	-38.76
4002.382	-39.49
4004.886	-39.67
4007.388	-37.85
4009.888	-36.4
4012.386	-36.22
4014.883	-37.4
4017.377	-37.76
4019.87	-36.85
4022.361	-37.85
4024.85	-39.49
4027.338	-34.76
4029.823	-36.31
4032.307	-36.31
4034.789	-34.49
4037.269	-39.03
4039.747	-39.58
4042.224	-35.76
4044.699	-37.49
4047.172	-34.03
4049.643	-30.76
4052.112	-39.03
4054.58	-36.94
4057.046	-35.31
4059.51	-36.67
4061.972	-36.67
4064.432	-42.4
4066.891	-32.85
4069.348	-36.49
4071.803	-36.4
4074.256	-36.12
4076.708	-33.49
4079.158	-40.4
4081.606	-33.22
4084.052	-44.58
4086.497	-42.4
4088.939	-46.58
4091.38	-48.31
4093.819	-45.76
4096.257	-34.58
4098.693	-25.58
4101.127	-23.12
4103.559	-22.03
4105.989	-30.4
4108.418	-27.03
4110.845	-25.76
4113.27	-22.12
4115.694	-20.58
4118.115	-19.22
4120.535	-22.49
4122.954	-28.12
4125.37	-33.03
4127.785	-40.4
4130.198	-46.22
4132.609	-52.23
4135.019	-43.12
4137.427	-47.12
4139.833	-46.98
4142.237	-50.29