File: Data/Raman/2017-08-24 - Glass, alluminum 108/Glass/subtilis colony - 10s - I=1, bc=5_RamanShift_1.txt
Data from subtilis colony - 10s - I=1, bc=5_RamanShift_1.txt Node

Date: Thu Aug 24 11:33:18 IDT 2017
User: aro
Spectrometer: QEPB0276
Trigger mode: 0
Integration Time (sec): 1.000000E1
Scans to average: 1
Electric dark correction enabled: true
Nonlinearity correction enabled: false
Boxcar width: 5
XAxis mode: Raman Shifts
Number of Pixels in Spectrum: 1044
>>>>>Begin Spectral Data<<<<<
160.701	259.42
166.742	429.96
172.777	615.88
178.805	785.92
184.826	923.85
190.841	1050.89
196.849	1266.61
202.85	1491.16
208.845	1714.16
214.833	1936.98
220.815	2141.7
226.789	2293.8
232.758	2421.61
238.719	2492.89
244.674	2556.89
250.623	2614.89
256.565	2683.16
262.5	2742.98
268.429	2801.52
274.351	2863.43
280.267	2924.43
286.176	2993.8
292.079	3061.89
297.975	3138.61
303.865	3223.8
309.748	3309.8
315.625	3391.61
321.495	3477.8
327.359	3552.07
333.217	3628.61
339.068	3695.25
344.912	3756.8
350.751	3809.61
356.583	3860.8
362.408	3892.52
368.227	3917.61
374.04	3924.43
379.847	3930.34
385.647	3942.34
391.44	3949.98
397.228	3965.52
403.009	3964.8
408.784	3940.34
414.553	3907.52
420.315	3878.07
426.071	3840.43
431.821	3806.16
437.565	3774.34
443.302	3736.43
449.033	3685.98
454.758	3626.34
460.477	3560.25
466.189	3513.7
471.896	3474.34
477.596	3439.07
483.29	3397.25
488.978	3349.25
494.66	3304.16
500.335	3259.25
506.005	3220.43
511.668	3188.61
517.325	3157.8
522.977	3130.43
528.622	3102.43
534.261	3079.25
539.894	3055.25
545.521	3047.07
551.141	3036.16
556.756	3034.43
562.365	3031.7
567.968	3027.52
573.565	3019.16
579.155	3011.8
584.74	2996.43
590.319	2983.98
595.892	2963.61
601.459	2949.07
607.02	2927.7
612.575	2911.07
618.124	2900.25
623.667	2887.16
629.204	2875.8
634.735	2858.16
640.261	2840.61
645.781	2821.89
651.294	2805.8
656.802	2794.43
662.304	2778.7
667.8	2764.7
673.29	2746.52
678.775	2727.61
684.254	2699.7
689.726	2675.34
695.193	2655.98
700.655	2635.61
706.11	2618.43
711.56	2602.25
717.004	2590.7
722.442	2569.7
727.874	2557.43
733.301	2545.34
738.722	2532.61
744.137	2524.43
749.547	2515.61
754.951	2506.7
760.349	2504.43
765.741	2498.89
771.128	2490.98
776.509	2482.07
781.885	2474.98
787.254	2466.98
792.618	2448.16
797.977	2441.89
803.33	2426.89
808.677	2411.52
814.019	2400.52
819.355	2389.61
824.686	2376.52
830.011	2368.07
835.33	2363.16
840.644	2360.25
845.952	2349.8
851.255	2355.43
856.552	2347.98
861.844	2342.25
867.13	2340.89
872.41	2340.25
877.686	2335.89
882.955	2331.43
888.219	2328.16
893.478	2330.34
898.731	2332.7
903.979	2337.43
909.221	2339.52
914.458	2349.8
919.69	2356.16
924.916	2364.34
930.136	2384.89
935.351	2391.89
940.561	2406.52
945.766	2421.98
950.965	2432.07
956.158	2437.07
961.347	2450.52
966.529	2459.61
971.707	2474.98
976.879	2493.8
982.046	2519.89
987.208	2551.43
992.364	2587.7
997.515	2635.25
1002.66	2682.43
1007.801	2740.61
1012.936	2798.07
1018.066	2855.07
1023.19	2925.61
1028.309	2994.25
1033.423	3057.98
1038.532	3131.8
1043.636	3197.34
1048.734	3278.25
1053.827	3358.52
1058.915	3452.89
1063.998	3556.34
1069.075	3676.34
1074.147	3808.07
1079.214	3934.89
1084.276	4084.89
1089.333	4238.07
1094.385	4391.98
1099.431	4547.61
1104.472	4707.7
1109.509	4862.52
1114.54	5030.98
1119.565	5195.16
1124.586	5358.25
1129.602	5529.25
1134.613	5705.7
1139.618	5892.16
1144.619	6087.61
1149.614	6288.52
1154.604	6494.07
1159.589	6706.61
1164.57	6918.61
1169.545	7125.16
1174.515	7330.52
1179.48	7540.16
1184.44	7749.89
1189.395	7967.52
1194.345	8180.25
1199.29	8408.07
1204.23	8628.61
1209.165	8861.16
1214.095	9110.07
1219.021	9351.52
1223.941	9590.89
1228.856	9825.52
1233.766	10040.89
1238.672	10243.61
1243.572	10429.43
1248.467	10601.7
1253.358	10771.8
1258.244	10945.25
1263.124	11136.34
1268	11353.25
1272.871	11610.61
1277.737	11930.34
1282.599	12321.7
1287.455	12799.8
1292.306	13360.52
1297.153	13989.8
1301.995	14696.7
1306.832	15468.25
1311.664	16285.98
1316.491	17134.34
1321.314	18002.7
1326.132	18865.07
1330.945	19704.25
1335.753	20498.52
1340.556	21225.34
1345.354	21876.16
1350.148	22445.25
1354.937	22925.61
1359.722	23318.7
1364.501	23626.16
1369.276	23856.8
1374.046	23997.89
1378.811	24049.7
1383.572	24029.43
1388.327	23945.43
1393.079	23812.25
1397.825	23654.25
1402.567	23474.34
1407.304	23276.98
1412.036	23064.7
1416.764	22856.7
1421.487	22626.16
1426.205	22407.7
1430.919	22178.7
1435.628	21944.07
1440.333	21694.98
1445.032	21431.43
1449.727	21150.98
1454.418	20852.16
1459.104	20539.52
1463.785	20210.34
1468.462	19887.98
1473.134	19562.7
1477.802	19239.7
1482.465	18935.16
1487.123	18661.61
1491.777	18398.34
1496.426	18161.7
1501.071	17949.98
1505.711	17741.25
1510.347	17529.7
1514.978	17317.25
1519.604	17090.8
1524.226	16860.52
1528.844	16620.7
1533.457	16381.89
1538.065	16133.89
1542.669	15904.43
1547.269	15679.25
1551.864	15475.89
1556.454	15298.43
1561.041	15146.52
1565.622	15022.25
1570.199	14908.52
1574.772	14807.52
1579.34	14712.25
1583.904	14608.52
1588.464	14493.98
1593.019	14371.7
1597.569	14237.43
1602.115	14090.7
1606.657	13948.52
1611.195	13797.07
1615.728	13653.43
1620.256	13516.07
1624.78	13401.89
1629.3	13304.61
1633.816	13226.34
1638.327	13167.89
1642.834	13124.7
1647.336	13083.52
1651.834	13035.89
1656.328	12980.61
1660.817	12915.34
1665.302	12828.34
1669.783	12711.52
1674.259	12563.98
1678.732	12387.25
1683.199	12186.89
1687.663	11967.07
1692.122	11732.98
1696.577	11501.52
1701.028	11280.25
1705.474	11059.25
1709.917	10844.16
1714.355	10646.61
1718.788	10447.16
1723.218	10247.25
1727.643	10068.89
1732.064	9896.25
1736.481	9731.98
1740.893	9571.43
1745.301	9414.25
1749.705	9251.89
1754.105	9103.8
1758.501	8964.52
1762.893	8848.07
1767.28	8741.34
1771.663	8669.89
1776.042	8599.43
1780.417	8546.8
1784.787	8497.61
1789.154	8454.43
1793.516	8409.7
1797.874	8355.25
1802.228	8294.7
1806.578	8234.52
1810.924	8172.25
1815.266	8085.89
1819.603	8042.8
1823.937	7991.07
1828.266	7952.43
1832.591	7928.43
1836.913	7922.07
1841.23	7922.98
1845.543	7946.61
1849.852	7976.98
1854.156	8008.8
1858.457	8042.34
1862.754	8073.07
1867.047	8102.34
1871.335	8118.98
1875.62	8114.52
1879.9	8101.61
1884.177	8076.98
1888.449	8046.52
1892.718	8001.34
1896.982	7945.61
1901.243	7880.7
1905.499	7813.7
1909.752	7731.98
1914	7645.16
1918.245	7553.16
1922.485	7443.7
1926.722	7324.25
1930.954	7197.25
1935.183	7041.61
1939.408	6876.61
1943.628	6678.7
1947.845	6469.34
1952.058	6244.52
1956.267	6008.7
1960.472	5772.25
1964.673	5524.98
1968.87	5290.34
1973.063	5060.16
1977.252	4831.07
1981.438	4622.7
1985.619	4425.52
1989.797	4235.89
1993.971	4074.52
1998.14	3921.52
2002.306	3771.25
2006.469	3628.07
2010.627	3496.07
2014.781	3365.25
2018.932	3236.7
2023.078	3123.7
2027.221	3007.25
2031.36	2894.98
2035.495	2791.07
2039.627	2693.25
2043.754	2603.34
2047.878	2521.89
2051.998	2443.52
2056.114	2371.98
2060.226	2313.8
2064.334	2259.52
2068.439	2210.89
2072.54	2163.52
2076.637	2112.52
2080.73	2071.89
2084.82	2021.16
2088.906	1974.61
2092.988	1928.07
2097.066	1879.8
2101.14	1836.34
2105.211	1790.34
2109.278	1735.07
2113.342	1689.89
2117.401	1634.25
2121.457	1595.89
2125.509	1549.98
2129.558	1518.25
2133.602	1479.7
2137.643	1445.89
2141.681	1411.25
2145.714	1385.43
2149.744	1355.98
2153.77	1327.16
2157.793	1302.07
2161.812	1274.52
2165.827	1246.43
2169.838	1231.43
2173.846	1208.43
2177.851	1184.16
2181.851	1165.98
2185.848	1141.98
2189.841	1125.43
2193.831	1108.25
2197.817	1093.07
2201.799	1083.52
2205.778	1069.7
2209.753	1059.89
2213.725	1052.34
2217.693	1042.7
2221.657	1030.52
2225.618	1024.07
2229.575	1015.7
2233.529	1007.98
2237.479	996.8
2241.425	983.16
2245.368	969.43
2249.307	960.8
2253.243	947.89
2257.175	936.16
2261.104	920.34
2265.029	908.61
2268.95	897.43
2272.868	884.8
2276.783	872.43
2280.694	862.25
2284.601	854.89
2288.505	844.16
2292.405	833.43
2296.302	817.8
2300.195	805.89
2304.085	796.07
2307.971	793.16
2311.854	781.7
2315.734	778.07
2319.609	770.25
2323.482	759.07
2327.351	754.43
2331.216	744.43
2335.078	741.25
2338.937	737.16
2342.792	733.61
2346.643	730.61
2350.492	728.89
2354.336	724.98
2358.178	721.52
2362.015	717.25
2365.85	716.61
2369.681	717.07
2373.508	717.43
2377.333	720.07
2381.153	712.34
2384.971	711.8
2388.785	709.61
2392.595	705.8
2396.402	701.16
2400.206	698.25
2404.007	693.25
2407.804	691.34
2411.597	692.61
2415.388	685.89
2419.174	682.8
2422.958	677.52
2426.738	675.25
2430.515	675.61
2434.289	668.43
2438.059	656.61
2441.825	654.52
2445.589	653.25
2449.349	643.8
2453.106	642.52
2456.859	632.7
2460.61	627.52
2464.356	625.98
2468.1	618.16
2471.84	612.61
2475.577	608.61
2479.311	606.52
2483.041	604.89
2486.768	602.34
2490.492	599.52
2494.213	594.52
2497.93	591.7
2501.644	584.89
2505.355	586.43
2509.062	585.61
2512.766	584.61
2516.467	581.89
2520.165	577.8
2523.859	573.43
2527.551	574.61
2531.239	566.43
2534.923	567.25
2538.605	564.52
2542.283	562.07
2545.958	556.25
2549.63	555.16
2553.299	553.89
2556.964	548.43
2560.626	547.34
2564.285	543.98
2567.941	536.07
2571.594	531.98
2575.243	532.16
2578.89	526.52
2582.533	517.43
2586.173	511.34
2589.809	509.89
2593.443	493.89
2597.073	489.61
2600.701	488.16
2604.325	481.89
2607.946	472.34
2611.564	468.25
2615.178	463.07
2618.79	453.61
2622.398	448.98
2626.004	443.25
2629.606	439.25
2633.205	431.61
2636.801	428.34
2640.394	423.8
2643.983	418.25
2647.57	413.25
2651.153	408.34
2654.734	404.89
2658.311	394.52
2661.885	396.34
2665.456	387.61
2669.025	384.8
2672.589	378.07
2676.151	378.25
2679.71	375.07
2683.266	367.7
2686.819	362.98
2690.368	360.43
2693.915	353.43
2697.458	346.89
2700.999	347.25
2704.536	341.16
2708.071	337.98
2711.602	335.25
2715.13	326.43
2718.656	326.98
2722.178	325.98
2725.697	324.25
2729.214	323.07
2732.727	320.61
2736.237	321.43
2739.744	318.25
2743.249	312.07
2746.75	317.16
2750.248	312.25
2753.743	309.07
2757.236	304.43
2760.725	305.43
2764.211	291.34
2767.695	292.89
2771.175	289.16
2774.652	287.61
2778.127	283.25
2781.598	285.07
2785.067	278.25
2788.532	274.98
2791.995	276.16
2795.455	277.34
2798.911	278.16
2802.365	274.89
2805.816	275.98
2809.264	277.98
2812.709	274.34
2816.151	279.16
2819.59	273.98
2823.026	277.7
2826.46	274.16
2829.89	275.25
2833.318	268.25
2836.742	270.8
2840.164	270.89
2843.583	268.98
2846.999	271.16
2850.412	269.16
2853.822	268.61
2857.229	273.25
2860.634	270.7
2864.035	262.25
2867.434	270.25
2870.83	266.16
2874.223	265.89
2877.613	265.8
2881	260.43
2884.385	260.43
2887.766	259.98
2891.145	252.8
2894.521	255.25
2897.894	250.43
2901.264	255.7
2904.631	252.43
2907.996	256.61
2911.358	255.16
2914.717	254.7
2918.073	253.34
2921.426	256.61
2924.777	257.7
2928.124	262.52
2931.469	266.8
2934.811	263.98
2938.15	271.43
2941.487	269.98
2944.821	279.25
2948.152	277.98
2951.48	283.16
2954.805	285.98
2958.128	292.98
2961.447	293.8
2964.765	299.89
2968.079	305.07
2971.39	313.07
2974.699	315.8
2978.005	327.07
2981.308	330.98
2984.609	336.43
2987.907	340.61
2991.202	352.89
2994.494	356.8
2997.784	366.07
3001.07	375.8
3004.355	380.52
3007.636	382.43
3010.915	390.25
3014.191	395.16
3017.464	401.34
3020.734	414.07
3024.002	419.25
3027.267	425.07
3030.53	435.07
3033.789	437.61
3037.046	442.8
3040.301	458.34
3043.552	468.34
3046.801	479.16
3050.048	493.07
3053.291	509.52
3056.532	520.07
3059.771	528.25
3063.006	544.16
3066.239	562.61
3069.469	576.52
3072.697	589.8
3075.922	607.98
3079.144	623.89
3082.364	640.8
3085.581	649.89
3088.795	671.16
3092.007	682.34
3095.216	692.98
3098.423	707.34
3101.627	722.98
3104.828	734.98
3108.026	753.98
3111.222	766.52
3114.416	785.07
3117.607	802.25
3120.795	816.25
3123.98	830.89
3127.163	845.07
3130.344	860.16
3133.521	877.89
3136.696	892.7
3139.869	909.61
3143.039	925.25
3146.206	941.16
3149.371	945.8
3152.533	959.43
3155.693	962.61
3158.85	979.43
3162.005	992.16
3165.157	999.89
3168.306	1014.52
3171.453	1023.61
3174.597	1032.16
3177.739	1042.25
3180.878	1060.8
3184.014	1076.07
3187.149	1095.34
3190.28	1120.52
3193.409	1140.8
3196.536	1165.8
3199.659	1194.34
3202.781	1216.7
3205.9	1240.98
3209.016	1269.52
3212.13	1301.7
3215.241	1325.8
3218.35	1358.07
3221.456	1383.7
3224.56	1408.98
3227.661	1435.98
3230.76	1458.7
3233.856	1489.25
3236.95	1515.16
3240.041	1537.52
3243.13	1572.07
3246.216	1594.89
3249.3	1618.07
3252.382	1644.16
3255.46	1661.98
3258.537	1680.61
3261.611	1706.43
3264.682	1722.52
3267.751	1736.61
3270.818	1747.52
3273.882	1751.8
3276.943	1751.16
3280.002	1752.07
3283.059	1743.16
3286.113	1730.89
3289.165	1721.52
3292.214	1703.52
3295.261	1685.7
3298.306	1657.61
3301.348	1638.52
3304.387	1620.98
3307.425	1598.34
3310.459	1575.7
3313.492	1554.52
3316.521	1529.52
3319.549	1512.07
3322.574	1491.8
3325.597	1469.7
3328.617	1454.25
3331.635	1437.52
3334.65	1413.89
3337.663	1399.98
3340.674	1379.43
3343.682	1361.61
3346.688	1343.61
3349.691	1322.25
3352.692	1298.61
3355.691	1279.89
3358.687	1258.25
3361.681	1231.16
3364.673	1210.34
3367.662	1179.34
3370.649	1159.98
3373.633	1130.61
3376.615	1106.89
3379.595	1071.7
3382.572	1051.7
3385.547	1022.89
3388.52	998.98
3391.49	976.8
3394.458	958.16
3397.424	934.8
3400.387	912.52
3403.348	889.8
3406.307	873.07
3409.263	852.16
3412.217	839.07
3415.168	822.25
3418.118	805.25
3421.065	784.43
3424.009	766.98
3426.951	744.61
3429.891	728.16
3432.829	712.61
3435.764	695.89
3438.697	676.07
3441.628	658.89
3444.557	638.07
3447.483	620.07
3450.407	605.98
3453.328	585.7
3456.247	567.16
3459.164	544.8
3462.079	531.16
3464.991	513.25
3467.902	496.07
3470.809	481.8
3473.715	466.16
3476.618	449.7
3479.519	437.89
3482.418	418.52
3485.315	408.43
3488.209	395.07
3491.101	389.34
3493.99	379.25
3496.878	364.52
3499.763	356.8
3502.646	337.98
3505.527	325.8
3508.405	315.52
3511.281	302.43
3514.155	298.07
3517.027	284.7
3519.897	269.52
3522.764	264.89
3525.629	256.7
3528.492	240.7
3531.352	235.25
3534.211	226.25
3537.067	216.98
3539.921	205.89
3542.773	200.25
3545.622	191.7
3548.469	182.07
3551.315	177.34
3554.157	172.43
3556.998	162.34
3559.837	162.07
3562.673	157.61
3565.507	151.89
3568.339	142.98
3571.169	138.7
3573.996	134.98
3576.822	134.43
3579.645	125.98
3582.466	127.43
3585.285	124.89
3588.101	119.07
3590.916	111.52
3593.728	111.16
3596.538	106.07
3599.346	103.34
3602.152	99.16
3604.956	95.7
3607.757	94.25
3610.556	86.25
3613.354	87.98
3616.149	84.25
3618.942	81.98
3621.732	79.52
3624.521	70.07
3627.307	71.89
3630.092	72.34
3632.874	71.25
3635.654	67.16
3638.432	64.16
3641.208	65.16
3643.982	65.25
3646.753	58.34
3649.523	52.43
3652.29	56.89
3655.055	57.43
3657.818	52.43
3660.579	51.16
3663.338	44.89
3666.095	42.25
3668.849	38.16
3671.602	42.43
3674.352	35.34
3677.101	38.7
3679.847	37.25
3682.591	33.43
3685.333	29.43
3688.073	32.61
3690.811	27.98
3693.547	23.7
3696.281	23.98
3699.013	24.98
3701.742	23.61
3704.47	20.25
3707.195	21.07
3709.919	19.25
3712.64	16.7
3715.359	13.16
3718.076	16.34
3720.792	14.7
3723.505	12.43
3726.216	9.98
3728.925	7.7
3731.632	7.7
3734.336	4.34
3737.039	2.7
3739.74	3.52
3742.439	-2.66
3745.136	5.43
3747.83	2.43
3750.523	2.98
3753.213	-13.84
3755.902	1.16
3758.589	-7.66
3761.273	-1.66
3763.956	-5.84
3766.636	-6.02
3769.315	-10.11
3771.991	-10.75
3774.665	-15.02
3777.338	-14.93
3780.008	-14.84
3782.677	-18.02
3785.343	-19.75
3788.007	-24.11
3790.67	-15.39
3793.33	-19.02
3795.989	-21.75
3798.645	-19.48
3801.299	-23.66
3803.952	-24.48
3806.602	-23.57
3809.251	-29.57
3811.897	-24.11
3814.542	-25.84
3817.184	-25.66
3819.825	-28.02
3822.463	-28.02
3825.1	-28.2
3827.735	-31.84
3830.367	-29.75
3832.998	-26.75
3835.627	-29.3
3838.253	-30.66
3840.878	-31.93
3843.501	-34.75
3846.122	-33.57
3848.741	-34.02
3851.358	-32.66
3853.973	-36.84
3856.586	-34.2
3859.197	-31.02
3861.806	-34.84
3864.414	-34.11
3867.019	-32.84
3869.622	-29.39
3872.224	-29.2
3874.823	-25.2
3877.421	-28.48
3880.016	-25.39
3882.61	-28.02
3885.202	-23.2
3887.792	-25.02
3890.38	-24.75
3892.966	-28.39
3895.55	-31.2
3898.132	-30.75
3900.713	-32.3
3903.291	-38.02
3905.868	-40.02
3908.442	-38.2
3911.015	-38.66
3913.586	-42.11
3916.155	-38.57
3918.722	-38.11
3921.287	-39.75
3923.85	-42.3
3926.411	-41.39
3928.971	-39.02
3931.528	-45.11
3934.084	-43.11
3936.638	-41.39
3939.19	-44.3
3941.74	-40.11
3944.288	-38.93
3946.834	-40.3
3949.378	-36.2
3951.921	-36.11
3954.462	-42.48
3957	-36.57
3959.537	-40.48
3962.072	-44.84
3964.606	-40.66
3967.137	-38.2
3969.667	-37.93
3972.194	-37.02
3974.72	-39.57
3977.244	-44.93
3979.766	-44.75
3982.286	-42.75
3984.805	-42.2
3987.321	-40.3
3989.836	-40.2
3992.349	-42.02
3994.86	-39.48
3997.369	-42.11
3999.877	-44.2
4002.382	-44.93
4004.886	-44.66
4007.388	-42.66
4009.888	-41.2
4012.386	-40.93
4014.883	-43.11
4017.377	-43.3
4019.87	-42.48
4022.361	-43.66
4024.85	-45.39
4027.338	-40.48
4029.823	-42.2
4032.307	-42.39
4034.789	-40.39
4037.269	-45.2
4039.747	-45.84
4042.224	-41.3
4044.699	-42.66
4047.172	-39.2
4049.643	-36.02
4052.112	-44.39
4054.58	-42.11
4057.046	-40.48
4059.51	-41.39
4061.972	-41.2
4064.432	-46.84
4066.891	-37.3
4069.348	-41.02
4071.803	-41.2
4074.256	-40.66
4076.708	-38.02
4079.158	-44.75
4081.606	-37.57
4084.052	-48.66
4086.497	-46.48
4088.939	-50.66
4091.38	-52.3
4093.819	-49.2
4096.257	-37.84
4098.693	-28.48
4101.127	-26.02
4103.559	-24.66
4105.989	-32.75
4108.418	-29.39
4110.845	-28.57
4113.27	-25.39
4115.694	-23.66
4118.115	-22.2
4120.535	-25.93
4122.954	-31.66
4125.37	-37.11
4127.785	-44.39
4130.198	-50.39
4132.609	-56.75
4135.019	-47.75
4137.427	-51.38
4139.833	-50.89
4142.237	-54.58