File: Data/Raman/2017-08-24 - Glass, alluminum 108/Aluminum II [full set]/Alu-BS-1-2 30s,I=1, BC=3, 1sta _RamanShift_2.txt
Data from Alu-BS-1-2 30s,I=1, BC=3, 1sta _RamanShift_2.txt Node

Date: Thu Aug 24 13:46:21 IDT 2017
User: aro
Spectrometer: QEPB0276
Trigger mode: 0
Integration Time (sec): 3.000000E1
Scans to average: 1
Electric dark correction enabled: true
Nonlinearity correction enabled: false
Boxcar width: 5
XAxis mode: Raman Shifts
Number of Pixels in Spectrum: 1044
>>>>>Begin Spectral Data<<<<<
160.701	180.75
166.742	274.96
172.777	374
178.805	460.58
184.826	531.35
190.841	591.25
196.849	695.89
202.85	803.7
208.845	912.89
214.833	1018.52
220.815	1114.34
226.789	1186.52
232.758	1232.89
238.719	1262.07
244.674	1283.8
250.623	1307.7
256.565	1332.52
262.5	1358.52
268.429	1382.52
274.351	1408.16
280.267	1431.61
286.176	1453.25
292.079	1477.52
297.975	1499.61
303.865	1519.7
309.748	1540.34
315.625	1560.43
321.495	1579.16
327.359	1596.16
333.217	1616.34
339.068	1634.52
344.912	1661.07
350.751	1696.98
356.583	1736.89
362.408	1771.07
368.227	1794.34
374.04	1819.8
379.847	1855.98
385.647	1925.34
391.44	2032.16
397.228	2136.8
403.009	2202.07
408.784	2221.16
414.553	2220.43
420.315	2205.61
426.071	2191.07
431.821	2183.43
437.565	2169.25
443.302	2136.25
449.033	2067.34
454.758	1959.52
460.477	1849.98
466.189	1772.8
471.896	1728.25
477.596	1679.16
483.29	1622.34
488.978	1556.07
494.66	1483.07
500.335	1405.98
506.005	1327.43
511.668	1246.25
517.325	1163.16
522.977	1076.52
528.622	994.16
534.261	914.43
539.894	848.7
545.521	797.7
551.141	762.52
556.756	735.52
562.365	715.34
567.968	701.07
573.565	691.98
579.155	684.7
584.74	680.52
590.319	675.34
595.892	670.52
601.459	666.16
607.02	664.16
612.575	668.61
618.124	686.89
623.667	710.98
629.204	727.07
634.735	726.16
640.261	719.89
645.781	709.43
651.294	699.16
656.802	689.89
662.304	679.98
667.8	667.25
673.29	645.16
678.775	610.16
684.254	569.8
689.726	537.98
695.193	521.25
700.655	512.07
706.11	505.7
711.56	502.89
717.004	503.61
722.442	508.34
727.874	515.7
733.301	523.61
738.722	528.07
744.137	532.8
749.547	539.34
754.951	547.43
760.349	556.8
765.741	568.07
771.128	578.89
776.509	585.07
781.885	587.7
787.254	587.34
792.618	587.07
797.977	589.07
803.33	589.98
808.677	588.07
814.019	583.52
819.355	574.98
824.686	564.25
830.011	550.16
835.33	535.34
840.644	520.61
845.952	504.34
851.255	488.8
856.552	474.43
861.844	459.34
867.13	445.8
872.41	433.16
877.686	421.7
882.955	412.16
888.219	403.43
893.478	397.25
898.731	390.98
903.979	387.52
909.221	384.25
914.458	381.07
919.69	378.7
924.916	376.52
930.136	374.98
935.351	373.52
940.561	371.98
945.766	370.43
950.965	368.89
956.158	366.34
961.347	363.98
966.529	361.07
971.707	358.34
976.879	356.52
982.046	353.98
987.208	353.61
992.364	352.61
997.515	352.16
1002.66	352.98
1007.801	355.34
1012.936	358.98
1018.066	362.8
1023.19	367.25
1028.309	371.52
1033.423	376.34
1038.532	380.07
1043.636	382.8
1048.734	385.8
1053.827	387.8
1058.915	389.43
1063.998	389.16
1069.075	387.98
1074.147	385.25
1079.214	382.34
1084.276	379.16
1089.333	373.98
1094.385	370.16
1099.431	364.89
1104.472	358.8
1109.509	352.89
1114.54	346.89
1119.565	341.89
1124.586	338.43
1129.602	335.07
1134.613	332.07
1139.618	330.16
1144.619	330.8
1149.614	330.34
1154.604	331.07
1159.589	332.52
1164.57	332.98
1169.545	333.8
1174.515	334.43
1179.48	334.89
1184.44	335.98
1189.395	336.43
1194.345	336.52
1199.29	335.43
1204.23	336.16
1209.165	334.8
1214.095	334.7
1219.021	334.61
1223.941	333.98
1228.856	332.25
1233.766	329.43
1238.672	325.8
1243.572	322.25
1248.467	316.16
1253.358	311.43
1258.244	305.98
1263.124	301.8
1268	297.34
1272.871	293.43
1277.737	292.16
1282.599	290.98
1287.455	290.25
1292.306	290.89
1297.153	291.61
1301.995	293.43
1306.832	295.43
1311.664	296.43
1316.491	297.98
1321.314	297.61
1326.132	297.52
1330.945	295.8
1335.753	293.89
1340.556	292.16
1345.354	289.43
1350.148	286.61
1354.937	285.8
1359.722	282.25
1364.501	279.07
1369.276	275.61
1374.046	272.89
1378.811	270.25
1383.572	266.43
1388.327	263.07
1393.079	259.34
1397.825	256.25
1402.567	253.52
1407.304	250.34
1412.036	248.7
1416.764	248.7
1421.487	247.89
1426.205	247.8
1430.919	248.52
1435.628	250.34
1440.333	252.61
1445.032	254.98
1449.727	256.61
1454.418	258.61
1459.104	259.89
1463.785	261.07
1468.462	261.34
1473.134	263.34
1477.802	264.7
1482.465	265.8
1487.123	267.16
1491.777	267.43
1496.426	268.61
1501.071	270.43
1505.711	270.89
1510.347	270.43
1514.978	270.07
1519.604	268.89
1524.226	267.07
1528.844	266.61
1533.457	269.52
1538.065	272.98
1542.669	274.8
1547.269	271.98
1551.864	267.52
1556.454	263.7
1561.041	261.16
1565.622	258.98
1570.199	257.7
1574.772	254.89
1579.34	252.07
1583.904	244.61
1588.464	235.8
1593.019	229.07
1597.569	226.34
1602.115	225.98
1606.657	225.25
1611.195	223.98
1615.728	222.25
1620.256	220.98
1624.78	220.61
1629.3	220.07
1633.816	219.52
1638.327	220.7
1642.834	222.52
1647.336	223.61
1651.834	223.89
1656.328	224.98
1660.817	226.61
1665.302	228.34
1669.783	229.34
1674.259	229.89
1678.732	230.34
1683.199	230.61
1687.663	229.8
1692.122	227.61
1696.577	225.8
1701.028	224.16
1705.474	221.43
1709.917	218.89
1714.355	215.25
1718.788	210.52
1723.218	206.34
1727.643	201.61
1732.064	197.07
1736.481	192.61
1740.893	188.43
1745.301	184.34
1749.705	180.52
1754.105	177.43
1758.501	175.25
1762.893	172.89
1767.28	172.8
1771.663	172.61
1776.042	172.25
1780.417	172.34
1784.787	172.25
1789.154	171.8
1793.516	172.34
1797.874	170.7
1802.228	169.61
1806.578	167.16
1810.924	164.98
1815.266	161.25
1819.603	157.7
1823.937	154.61
1828.266	151.7
1832.591	148.43
1836.913	146.16
1841.23	142.98
1845.543	142.34
1849.852	140.89
1854.156	139.52
1858.457	139.52
1862.754	139.89
1867.047	139.16
1871.335	138.61
1875.62	138.07
1879.9	139.16
1884.177	139.07
1888.449	139.98
1892.718	140.43
1896.982	140.43
1901.243	142.07
1905.499	142.98
1909.752	143.7
1914	145.52
1918.245	146.61
1922.485	147.61
1926.722	146.52
1930.954	146.98
1935.183	146.16
1939.408	144.7
1943.628	144.16
1947.845	141.52
1952.058	138.7
1956.267	135.25
1960.472	130.8
1964.673	127.8
1968.87	124.98
1973.063	122.16
1977.252	118.8
1981.438	116.8
1985.619	114.34
1989.797	111.89
1993.971	110.07
1998.14	108.25
2002.306	106.98
2006.469	107.25
2010.627	105.8
2014.781	103.43
2018.932	102.16
2023.078	100.8
2027.221	98.43
2031.36	96.8
2035.495	95.89
2039.627	94.7
2043.754	94.07
2047.878	94.25
2051.998	94.7
2056.114	94.98
2060.226	96.43
2064.334	96.98
2068.439	98.43
2072.54	99.43
2076.637	100.16
2080.73	100.61
2084.82	101.07
2088.906	100.98
2092.988	99.52
2097.066	97.8
2101.14	96.7
2105.211	95.34
2109.278	93.98
2113.342	92.25
2117.401	90.34
2121.457	89.61
2125.509	87.07
2129.558	84.89
2133.602	82.7
2137.643	81.98
2141.681	79.8
2145.714	78.61
2149.744	76.25
2153.77	73.98
2157.793	71.52
2161.812	70.25
2165.827	67.8
2169.838	66.43
2173.846	64.61
2177.851	63.61
2181.851	61.61
2185.848	60.7
2189.841	58.8
2193.831	58.34
2197.817	57.7
2201.799	57.07
2205.778	57.34
2209.753	57.43
2213.725	57.8
2217.693	58.16
2221.657	58.43
2225.618	57.98
2229.575	56.98
2233.529	57.07
2237.479	57.16
2241.425	56.98
2245.368	56.25
2249.307	54.89
2253.243	53.89
2257.175	53.16
2261.104	52.07
2265.029	50.61
2268.95	49.98
2272.868	50.25
2276.783	49.34
2280.694	47.43
2284.601	45.7
2288.505	45.52
2292.405	45.16
2296.302	43.89
2300.195	42.7
2304.085	43.34
2307.971	45.89
2311.854	55.07
2315.734	65.7
2319.609	71.89
2323.482	72.16
2327.351	72.7
2331.216	70.98
2335.078	69.8
2338.937	68.34
2342.792	67.34
2346.643	64.16
2350.492	60.07
2354.336	48.98
2358.178	35.89
2362.015	28.16
2365.85	26.52
2369.681	25.34
2373.508	25.43
2377.333	24.43
2381.153	23.98
2384.971	23.61
2388.785	23.8
2392.595	22.43
2396.402	21.8
2400.206	20.98
2404.007	20.43
2407.804	19.07
2411.597	18.52
2415.388	17.25
2419.174	17.16
2422.958	16.61
2426.738	15.07
2430.515	13.61
2434.289	13.43
2438.059	12.98
2441.825	12.7
2445.589	11.16
2449.349	11.43
2453.106	10.34
2456.859	10.52
2460.61	9.43
2464.356	9.25
2468.1	9.8
2471.84	10.07
2475.577	9.61
2479.311	8.7
2483.041	8.07
2486.768	8.07
2490.492	7.7
2494.213	7.7
2497.93	7.61
2501.644	7.52
2505.355	6.98
2509.062	6.52
2512.766	5.61
2516.467	5.7
2520.165	5.61
2523.859	6.16
2527.551	6.25
2531.239	5.52
2534.923	5.07
2538.605	4.16
2542.283	3.98
2545.958	4.7
2549.63	3.98
2553.299	4.98
2556.964	4.7
2560.626	4.89
2564.285	4.25
2567.941	3.43
2571.594	3.34
2575.243	3.25
2578.89	3.16
2582.533	2.52
2586.173	1.25
2589.809	1.43
2593.443	0.25
2597.073	-0.39
2600.701	-1.02
2604.325	-1.93
2607.946	-1.84
2611.564	-2.66
2615.178	-3.66
2618.79	-4.75
2622.398	-5.48
2626.004	-6.75
2629.606	-8.75
2633.205	-9.57
2636.801	-11.11
2640.394	-12.2
2643.983	-13.3
2647.57	-14.48
2651.153	-15.02
2654.734	-14.93
2658.311	-15.2
2661.885	-15.75
2665.456	-15.84
2669.025	-15.57
2672.589	-16.2
2676.151	-16.11
2679.71	-15.75
2683.266	-15.93
2686.819	-16.2
2690.368	-16.93
2693.915	-17.3
2697.458	-17.66
2700.999	-18.02
2704.536	-18.57
2708.071	-18.66
2711.602	-18.3
2715.13	-17.84
2718.656	-18.2
2722.178	-17.93
2725.697	-17.66
2729.214	-16.75
2732.727	-18.02
2736.237	-17.84
2739.744	-17.3
2743.249	-16.93
2746.75	-17.75
2750.248	-18.11
2753.743	-19.66
2757.236	-20.48
2760.725	-21.3
2764.211	-21.66
2767.695	-22.84
2771.175	-22.75
2774.652	-23.48
2778.127	-24.84
2781.598	-24.93
2785.067	-25.57
2788.532	-26.39
2791.995	-25.93
2795.455	-26.11
2798.911	-26.39
2802.365	-26.93
2805.816	-26.57
2809.264	-26.48
2812.709	-26.57
2816.151	-27.02
2819.59	-27.2
2823.026	-26.39
2826.46	-26.02
2829.89	-25.66
2833.318	-25.66
2836.742	-25.75
2840.164	-26.3
2843.583	-27.11
2846.999	-27.02
2850.412	-27.39
2853.822	-26.66
2857.229	-26.93
2860.634	-27.39
2864.035	-27.48
2867.434	-28.3
2870.83	-28.48
2874.223	-29.11
2877.613	-28.93
2881	-29.39
2884.385	-30.3
2887.766	-31.39
2891.145	-33.02
2894.521	-34.66
2897.894	-35.57
2901.264	-37.11
2904.631	-38.57
2907.996	-39.02
2911.358	-39.48
2914.717	-41.02
2918.073	-41.84
2921.426	-42.75
2924.777	-42.66
2928.124	-42.39
2931.469	-41.84
2934.811	-41.93
2938.15	-41.2
2941.487	-40.66
2944.821	-40.93
2948.152	-40.3
2951.48	-39.93
2954.805	-39.57
2958.128	-38.93
2961.447	-38.66
2964.765	-38.75
2968.079	-39.48
2971.39	-39.02
2974.699	-39.57
2978.005	-39.48
2981.308	-39.3
2984.609	-40.2
2987.907	-40.2
2991.202	-40.39
2994.494	-41.3
2997.784	-41.84
3001.07	-41.84
3004.355	-41.57
3007.636	-42.84
3010.915	-43.93
3014.191	-45.39
3017.464	-46.39
3020.734	-46.93
3024.002	-47.66
3027.267	-48.57
3030.53	-48.84
3033.789	-50.11
3037.046	-50.84
3040.301	-51.48
3043.552	-51.75
3046.801	-51.75
3050.048	-51.11
3053.291	-51.48
3056.532	-51.11
3059.771	-50.75
3063.006	-49.93
3066.239	-49.2
3069.469	-48.48
3072.697	-48.57
3075.922	-48.2
3079.144	-47.84
3082.364	-47.39
3085.581	-47.57
3088.795	-47.84
3092.007	-48.75
3095.216	-49.66
3098.423	-50.66
3101.627	-51.2
3104.828	-50.57
3108.026	-50.48
3111.222	-51.02
3114.416	-51.2
3117.607	-52.02
3120.795	-52.75
3123.98	-53.3
3127.163	-52.93
3130.344	-52.93
3133.521	-52.2
3136.696	-52.93
3139.869	-54.3
3143.039	-55.2
3146.206	-55.39
3149.371	-56.39
3152.533	-56.2
3155.693	-56.39
3158.85	-55.84
3162.005	-56.57
3165.157	-56.84
3168.306	-57.84
3171.453	-57.84
3174.597	-57.02
3177.739	-56.57
3180.878	-56.3
3184.014	-55.66
3187.149	-55.57
3190.28	-55.2
3193.409	-55.84
3196.536	-54.66
3199.659	-54.11
3202.781	-53.75
3205.9	-53.39
3209.016	-54.57
3212.13	-55.11
3215.241	-55.84
3218.35	-56.11
3221.456	-56.48
3224.56	-56.84
3227.661	-57.11
3230.76	-58.2
3233.856	-58.93
3236.95	-59.66
3240.041	-61.39
3243.13	-61.2
3246.216	-61.3
3249.3	-61.66
3252.382	-62.39
3255.46	-63.11
3258.537	-63.2
3261.611	-63.48
3264.682	-63.39
3267.751	-62.75
3270.818	-63.02
3273.882	-62.66
3276.943	-62.48
3280.002	-61.93
3283.059	-61.39
3286.113	-60.84
3289.165	-60.3
3292.214	-60.02
3295.261	-59.48
3298.306	-59.57
3301.348	-60.11
3304.387	-59.84
3307.425	-59.3
3310.459	-59.93
3313.492	-60.11
3316.521	-60.02
3319.549	-60.02
3322.574	-60.39
3325.597	-60.84
3328.617	-61.39
3331.635	-61.75
3334.65	-62.02
3337.663	-61.93
3340.674	-62.02
3343.682	-62.3
3346.688	-62.84
3349.691	-63.84
3352.692	-64.3
3355.691	-64.75
3358.687	-65.57
3361.681	-66.11
3364.673	-66.2
3367.662	-65.93
3370.649	-66.84
3373.633	-66.84
3376.615	-66.66
3379.595	-66.39
3382.572	-66.02
3385.547	-66.11
3388.52	-65.93
3391.49	-65.2
3394.458	-64.48
3397.424	-64.66
3400.387	-65.2
3403.348	-64.39
3406.307	-64.2
3409.263	-64.02
3412.217	-64.02
3415.168	-64.02
3418.118	-64.02
3421.065	-63.93
3424.009	-63.84
3426.951	-63.2
3429.891	-63.39
3432.829	-62.93
3435.764	-63.48
3438.697	-63.93
3441.628	-63.84
3444.557	-63.93
3447.483	-64.11
3450.407	-64.2
3453.328	-64.2
3456.247	-64.48
3459.164	-65.02
3462.079	-64.66
3464.991	-65.48
3467.902	-65.48
3470.809	-65.66
3473.715	-66.02
3476.618	-66.75
3479.519	-66.66
3482.418	-66.57
3485.315	-66.3
3488.209	-66.75
3491.101	-66.39
3493.99	-66.2
3496.878	-65.3
3499.763	-65.2
3502.646	-65.48
3505.527	-65.57
3508.405	-65.02
3511.281	-65.11
3514.155	-65.3
3517.027	-65.39
3519.897	-65.02
3522.764	-65.66
3525.629	-66.02
3528.492	-66.66
3531.352	-66.39
3534.211	-65.84
3537.067	-65.57
3539.921	-66.57
3542.773	-67.48
3545.622	-67.84
3548.469	-68.02
3551.315	-68.48
3554.157	-68.66
3556.998	-68.75
3559.837	-68.3
3562.673	-68.57
3565.507	-68.48
3568.339	-68.93
3571.169	-68.57
3573.996	-68.2
3576.822	-67.93
3579.645	-68.11
3582.466	-67.48
3585.285	-67.57
3588.101	-67.39
3590.916	-67.93
3593.728	-67.2
3596.538	-67.75
3599.346	-67.39
3602.152	-67.39
3604.956	-67.2
3607.757	-67.11
3610.556	-66.66
3613.354	-66.66
3616.149	-66.57
3618.942	-67.39
3621.732	-66.93
3624.521	-68.39
3627.307	-68.48
3630.092	-68.66
3632.874	-68.75
3635.654	-69.48
3638.432	-69.3
3641.208	-70.3
3643.982	-71.2
3646.753	-71.57
3649.523	-70.84
3652.29	-71.39
3655.055	-71.2
3657.818	-71.48
3660.579	-71.84
3663.338	-72.2
3666.095	-71.48
3668.849	-71.84
3671.602	-71.2
3674.352	-70.93
3677.101	-70.75
3679.847	-70.75
3682.591	-70.75
3685.333	-69.75
3688.073	-69.48
3690.811	-68.75
3693.547	-68.3
3696.281	-68.57
3699.013	-68.84
3701.742	-68.93
3704.47	-68.66
3707.195	-69.11
3709.919	-69.48
3712.64	-69.39
3715.359	-69.84
3718.076	-70.84
3720.792	-71.75
3723.505	-71.84
3726.216	-71.57
3728.925	-71.75
3731.632	-71.93
3734.336	-72.3
3737.039	-72.2
3739.74	-72.2
3742.439	-72.66
3745.136	-73.39
3747.83	-72.93
3750.523	-73.2
3753.213	-72.93
3755.902	-73.57
3758.589	-73.3
3761.273	-73.48
3763.956	-73.84
3766.636	-73.66
3769.315	-73.57
3771.991	-74.3
3774.665	-76.39
3777.338	-75.84
3780.008	-75.3
3782.677	-75.48
3785.343	-75.3
3788.007	-74.84
3790.67	-74.84
3793.33	-74.11
3795.989	-73.93
3798.645	-73.48
3801.299	-72.3
3803.952	-69.3
3806.602	-69.48
3809.251	-69.48
3811.897	-69.75
3814.542	-69.93
3817.184	-69.93
3819.825	-70.3
3822.463	-70.3
3825.1	-70.66
3827.735	-71.3
3830.367	-71.48
3832.998	-72.02
3835.627	-72.02
3838.253	-72.02
3840.878	-72.02
3843.501	-71.2
3846.122	-71.66
3848.741	-71.2
3851.358	-71.3
3853.973	-69.84
3856.586	-68.39
3859.197	-66.11
3861.806	-62.39
3864.414	-55.66
3867.019	-44.84
3869.622	-28.75
3872.224	-10.48
3874.823	3.98
3877.421	12.8
3880.016	17.61
3882.61	18.61
3885.202	18.61
3887.792	17.16
3890.38	13.61
3892.966	7.07
3895.55	-2.75
3898.132	-18.39
3900.713	-36.57
3903.291	-50.75
3905.868	-59.84
3908.442	-64.75
3911.015	-66.93
3913.586	-68.39
3916.155	-69.48
3918.722	-69.3
3921.287	-69.2
3923.85	-70.2
3926.411	-70.66
3928.971	-71.57
3931.528	-71.93
3934.084	-71.84
3936.638	-72.2
3939.19	-72.57
3941.74	-72.39
3944.288	-71.93
3946.834	-71.3
3949.378	-71.11
3951.921	-71.48
3954.462	-71.2
3957	-70.57
3959.537	-70.84
3962.072	-70.3
3964.606	-70.02
3967.137	-69.57
3969.667	-69.84
3972.194	-70.3
3974.72	-71.11
3977.244	-71.48
3979.766	-70.57
3982.286	-70.66
3984.805	-70.75
3987.321	-70.3
3989.836	-70.84
3992.349	-70.66
3994.86	-70.66
3997.369	-70.02
3999.877	-69.75
4002.382	-70.2
4004.886	-70.3
4007.388	-71.2
4009.888	-71.84
4012.386	-71.84
4014.883	-72.3
4017.377	-71.84
4019.87	-72.3
4022.361	-72.48
4024.85	-72.93
4027.338	-72.75
4029.823	-72.57
4032.307	-72.3
4034.789	-72.02
4037.269	-71.3
4039.747	-71.48
4042.224	-70.93
4044.699	-71.02
4047.172	-70.48
4049.643	-70.2
4052.112	-69.57
4054.58	-69.75
4057.046	-69.66
4059.51	-69.75
4061.972	-69.66
4064.432	-70.11
4066.891	-69.93
4069.348	-70.39
4071.803	-70.48
4074.256	-71.2
4076.708	-71.66
4079.158	-72.48
4081.606	-72.75
4084.052	-73.11
4086.497	-72.84
4088.939	-72.84
4091.38	-72.57
4093.819	-59.2
4096.257	-47.11
4098.693	-35.39
4101.127	-23.39
4103.559	-12.3
4105.989	-1.48
4108.418	-1.2
4110.845	-1.39
4113.27	-2.66
4115.694	-3.11
4118.115	-3.11
4120.535	-16.11
4122.954	-28.11
4125.37	-40.11
4127.785	-52.11
4130.198	-62.93
4132.609	-73.85
4135.019	-74.19
4137.427	-73.75
4139.833	-72.75
4142.237	-72.25