File: Data/Raman/2017-08-24 - Glass, alluminum 108/Aluminum II [full set]/Alu-EC107 30s,I=1, BC=3, 1sta _RamanShift_3.txt
Data from Alu-EC107 30s,I=1, BC=3, 1sta _RamanShift_3.txt Node

Date: Thu Aug 24 13:35:51 IDT 2017
User: aro
Spectrometer: QEPB0276
Trigger mode: 0
Integration Time (sec): 3.000000E1
Scans to average: 1
Electric dark correction enabled: true
Nonlinearity correction enabled: false
Boxcar width: 5
XAxis mode: Raman Shifts
Number of Pixels in Spectrum: 1044
>>>>>Begin Spectral Data<<<<<
160.701	181.71
166.742	283.45
172.777	388.25
178.805	481.32
184.826	555.77
190.841	618.24
196.849	730.69
202.85	844.97
208.845	962.06
214.833	1076.33
220.815	1179.15
226.789	1258.15
232.758	1307.15
238.719	1337.24
244.674	1359.97
250.623	1386.51
256.565	1412.69
262.5	1438.51
268.429	1465.88
274.351	1489.06
280.267	1511.33
286.176	1532.51
292.079	1555.6
297.975	1578.51
303.865	1600.6
309.748	1620.78
315.625	1638.51
321.495	1656.06
327.359	1674.6
333.217	1690.33
339.068	1710.6
344.912	1736.51
350.751	1770.69
356.583	1808.51
362.408	1838.97
368.227	1861.33
374.04	1886.24
379.847	1919.88
385.647	1987.69
391.44	2087.24
397.228	2190.24
403.009	2252.15
408.784	2269.33
414.553	2266.33
420.315	2249.69
426.071	2236.33
431.821	2227.78
437.565	2212.33
443.302	2183.97
449.033	2118.69
454.758	2014.06
460.477	1906.78
466.189	1833.6
471.896	1790.42
477.596	1744.6
483.29	1692.33
488.978	1628.88
494.66	1560.06
500.335	1487.06
506.005	1411.06
511.668	1332.97
517.325	1257.69
522.977	1178.15
528.622	1099.51
534.261	1026.69
539.894	965.6
545.521	917.97
551.141	884.6
556.756	858.6
562.365	839.51
567.968	826.6
573.565	816.33
579.155	806.88
584.74	799.78
590.319	793.24
595.892	786.88
601.459	780.15
607.02	777.51
612.575	782.88
618.124	800.42
623.667	824.06
629.204	837.24
634.735	838.69
640.261	831.97
645.781	822.97
651.294	812.88
656.802	802.42
662.304	793.15
667.8	780.51
673.29	759.06
678.775	723.69
684.254	683.33
689.726	652.88
695.193	636.15
700.655	628.51
706.11	623.15
711.56	620.24
717.004	621.51
722.442	625.78
727.874	633.15
733.301	639.69
738.722	644.69
744.137	649.15
749.547	654.78
754.951	661.88
760.349	668.33
765.741	678.78
771.128	689.24
776.509	695.06
781.885	697.78
787.254	697.06
792.618	694.97
797.977	696.88
803.33	698.06
808.677	696.88
814.019	692.6
819.355	686.42
824.686	675.06
830.011	662.06
835.33	648.24
840.644	634.15
845.952	619.15
851.255	604.69
856.552	589.24
861.844	575.24
867.13	561.24
872.41	548.33
877.686	537.42
882.955	526.69
888.219	516.6
893.478	509.51
898.731	503.15
903.979	497.97
909.221	495.6
914.458	494.15
919.69	492.06
924.916	490.78
930.136	488.6
935.351	485.78
940.561	484.42
945.766	483.42
950.965	481.97
956.158	480.06
961.347	476.88
966.529	473.78
971.707	469.97
976.879	466.97
982.046	465.15
987.208	465.33
992.364	465.6
997.515	466.6
1002.66	467.6
1007.801	471.15
1012.936	473.6
1018.066	477.24
1023.19	480.51
1028.309	484.06
1033.423	487.78
1038.532	490.6
1043.636	492.33
1048.734	493.06
1053.827	494.42
1058.915	494.78
1063.998	492.6
1069.075	491.42
1074.147	489.24
1079.214	487.15
1084.276	483.78
1089.333	479.78
1094.385	474.78
1099.431	470.6
1104.472	465.69
1109.509	458.42
1114.54	452.15
1119.565	446.6
1124.586	441.78
1129.602	438.24
1134.613	434.51
1139.618	433.42
1144.619	433.15
1149.614	433.78
1154.604	434.24
1159.589	434.78
1164.57	436.15
1169.545	437.33
1174.515	438.6
1179.48	439.69
1184.44	441.42
1189.395	441.69
1194.345	441.06
1199.29	440.06
1204.23	440.24
1209.165	439.78
1214.095	441.33
1219.021	441.06
1223.941	440.69
1228.856	439.33
1233.766	436.6
1238.672	432.78
1243.572	429.51
1248.467	424.6
1253.358	418.6
1258.244	411.88
1263.124	405.15
1268	398.33
1272.871	395.15
1277.737	391.24
1282.599	389.33
1287.455	388.15
1292.306	388.69
1297.153	394.88
1301.995	396.78
1306.832	398.15
1311.664	398.97
1316.491	399.15
1321.314	399.69
1326.132	397.97
1330.945	396.33
1335.753	393.78
1340.556	390.88
1345.354	386.42
1350.148	376.24
1354.937	372.42
1359.722	370.24
1364.501	367.42
1369.276	365.51
1374.046	361.51
1378.811	358.15
1383.572	354.06
1388.327	348.97
1393.079	345.78
1397.825	342.51
1402.567	339.6
1407.304	336.69
1412.036	334.33
1416.764	333.06
1421.487	332.06
1426.205	332.69
1430.919	333.97
1435.628	335.69
1440.333	338.88
1445.032	341.51
1449.727	342.42
1454.418	343.6
1459.104	344.06
1463.785	343.78
1468.462	343.78
1473.134	343.6
1477.802	343.33
1482.465	342.24
1487.123	343.24
1491.777	343.33
1496.426	343.24
1501.071	344.69
1505.711	344.69
1510.347	343.88
1514.978	343.6
1519.604	342.33
1524.226	340.15
1528.844	338.78
1533.457	341.97
1538.065	345.24
1542.669	346.06
1547.269	342.97
1551.864	338.24
1556.454	334.6
1561.041	331.97
1565.622	328.97
1570.199	327.42
1574.772	324.97
1579.34	322.42
1583.904	315.15
1588.464	305.97
1593.019	299.6
1597.569	296.88
1602.115	295.15
1606.657	293.78
1611.195	291.15
1615.728	289.69
1620.256	287.51
1624.78	286.6
1629.3	284.33
1633.816	283.6
1638.327	284.6
1642.834	284.24
1647.336	283.88
1651.834	285.33
1656.328	286.51
1660.817	288.51
1665.302	289.15
1669.783	288.78
1674.259	289.15
1678.732	288.6
1683.199	287.97
1687.663	284.97
1692.122	282.97
1696.577	280.33
1701.028	277.51
1705.474	273.97
1709.917	269.97
1714.355	266.69
1718.788	262.51
1723.218	257.69
1727.643	253.69
1732.064	248.69
1736.481	245.51
1740.893	242.42
1745.301	239.33
1749.705	235.6
1754.105	232.06
1758.501	229.6
1762.893	226.78
1767.28	225.78
1771.663	223.78
1776.042	223.51
1780.417	222.69
1784.787	221.06
1789.154	219.78
1793.516	217.97
1797.874	215.69
1802.228	213.97
1806.578	211.78
1810.924	208.97
1815.266	206.24
1819.603	203.33
1823.937	199.88
1828.266	196.97
1832.591	194.06
1836.913	192.06
1841.23	190.06
1845.543	188.6
1849.852	187.15
1854.156	185.97
1858.457	185.69
1862.754	184.88
1867.047	185.15
1871.335	184.78
1875.62	184.6
1879.9	185.33
1884.177	184.69
1888.449	184.69
1892.718	185.42
1896.982	186.69
1901.243	187.51
1905.499	187.42
1909.752	188.78
1914	189.97
1918.245	190.97
1922.485	190.97
1926.722	190.51
1930.954	190.42
1935.183	191.42
1939.408	190.06
1943.628	187.6
1947.845	184.33
1952.058	181.78
1956.267	177.97
1960.472	173.33
1964.673	169.42
1968.87	165.51
1973.063	161.78
1977.252	158.15
1981.438	153.24
1985.619	150.24
1989.797	148.06
1993.971	146.6
1998.14	144.78
2002.306	143.33
2006.469	142.6
2010.627	140.78
2014.781	138.88
2018.932	138.15
2023.078	136.88
2027.221	135.6
2031.36	133.88
2035.495	132.97
2039.627	131.97
2043.754	131.06
2047.878	130.51
2051.998	131.24
2056.114	131.69
2060.226	133.06
2064.334	133.06
2068.439	133.88
2072.54	134.42
2076.637	135.6
2080.73	135.42
2084.82	135.06
2088.906	134.6
2092.988	134.06
2097.066	132.06
2101.14	130.78
2105.211	129.88
2109.278	128.24
2113.342	125.88
2117.401	124.15
2121.457	121.97
2125.509	120.6
2129.558	118.6
2133.602	116.24
2137.643	114.78
2141.681	112.33
2145.714	110.24
2149.744	108.15
2153.77	106.33
2157.793	104.51
2161.812	102.15
2165.827	100.06
2169.838	98.15
2173.846	96.78
2177.851	95.51
2181.851	93.33
2185.848	92.33
2189.841	90.88
2193.831	89.42
2197.817	88.51
2201.799	87.78
2205.778	87.51
2209.753	87.51
2213.725	86.42
2217.693	85.88
2221.657	86.51
2225.618	86.06
2229.575	85.42
2233.529	85.33
2237.479	85.15
2241.425	83.97
2245.368	82.6
2249.307	82.33
2253.243	81.06
2257.175	80.97
2261.104	80.24
2265.029	78.88
2268.95	78.33
2272.868	78.15
2276.783	76.88
2280.694	75.78
2284.601	75.06
2288.505	75.33
2292.405	74.15
2296.302	73.51
2300.195	71.88
2304.085	71.6
2307.971	73.88
2311.854	82.88
2315.734	92.24
2319.609	97.97
2323.482	97.42
2327.351	96.69
2331.216	94.88
2335.078	94.15
2338.937	93.24
2342.792	91.88
2346.643	89.97
2350.492	85.88
2354.336	74.42
2358.178	62.51
2362.015	55.51
2365.85	54.15
2369.681	53.97
2373.508	53.51
2377.333	52.69
2381.153	51.51
2384.971	51.78
2388.785	51.06
2392.595	49.06
2396.402	48.51
2400.206	48.42
2404.007	47.6
2407.804	46.15
2411.597	45.24
2415.388	44.78
2419.174	44.42
2422.958	43.88
2426.738	42.69
2430.515	42.33
2434.289	42.97
2438.059	42.06
2441.825	41.78
2445.589	41.87
2449.349	42.06
2453.106	41.15
2456.859	40.42
2460.61	39.06
2464.356	37.78
2468.1	37.6
2471.84	36.33
2475.577	35.69
2479.311	35.33
2483.041	34.51
2486.768	33.51
2490.492	32.6
2494.213	32.33
2497.93	32.97
2501.644	33.06
2505.355	33.24
2509.062	32.33
2512.766	32.6
2516.467	31.97
2520.165	31.51
2523.859	31.15
2527.551	30.51
2531.239	30.69
2534.923	30.06
2538.605	28.78
2542.283	28.69
2545.958	29.42
2549.63	29.15
2553.299	29.51
2556.964	29.24
2560.626	29.24
2564.285	28.87
2567.941	28.15
2571.594	27.88
2575.243	27.24
2578.89	26.24
2582.533	25.24
2586.173	23.88
2589.809	23.6
2593.443	22.06
2597.073	21.06
2600.701	19.97
2604.325	18.06
2607.946	17.42
2611.564	16.24
2615.178	15.69
2618.79	14.97
2622.398	14.69
2626.004	13.24
2629.606	11.51
2633.205	10.78
2636.801	10.24
2640.394	9.51
2643.983	9.33
2647.57	8.78
2651.153	7.69
2654.734	7.33
2658.311	7.33
2661.885	6.06
2665.456	5.78
2669.025	6.24
2672.589	6.24
2676.151	5.51
2679.71	5.42
2683.266	4.78
2686.819	4.42
2690.368	4.33
2693.915	3.42
2697.458	2.06
2700.999	1.51
2704.536	0.78
2708.071	-0.67
2711.602	-1.58
2715.13	-1.67
2718.656	-2.4
2722.178	-1.94
2725.697	-1.94
2729.214	-2.12
2732.727	-2.67
2736.237	-2.03
2739.744	-1.49
2743.249	-0.85
2746.75	-0.94
2750.248	-1.22
2753.743	-1.76
2757.236	-2.49
2760.725	-3.76
2764.211	-4.85
2767.695	-5.31
2771.175	-5.12
2774.652	-5.76
2778.127	-6.67
2781.598	-7.22
2785.067	-7.67
2788.532	-8.22
2791.995	-8.31
2795.455	-8.22
2798.911	-8.31
2802.365	-8.22
2805.816	-8.03
2809.264	-8.4
2812.709	-8.94
2816.151	-9.58
2819.59	-9.94
2823.026	-9.12
2826.46	-9.31
2829.89	-9.31
2833.318	-9.76
2836.742	-10.13
2840.164	-11.03
2843.583	-12.22
2846.999	-12.4
2850.412	-12.67
2853.822	-12.4
2857.229	-13.03
2860.634	-13.58
2864.035	-13.94
2867.434	-14.76
2870.83	-15.03
2874.223	-15.31
2877.613	-15.4
2881	-15.22
2884.385	-16.49
2887.766	-17.76
2891.145	-19.31
2894.521	-19.85
2897.894	-21.13
2901.264	-21.58
2904.631	-22.49
2907.996	-22.49
2911.358	-23.31
2914.717	-23.85
2918.073	-25.03
2921.426	-25.4
2924.777	-25.22
2928.124	-25.22
2931.469	-25.85
2934.811	-26.4
2938.15	-27.03
2941.487	-27.49
2944.821	-28.58
2948.152	-28.85
2951.48	-29.22
2954.805	-29.12
2958.128	-29.03
2961.447	-29.22
2964.765	-29.31
2968.079	-28.94
2971.39	-28.22
2974.699	-28.4
2978.005	-28.22
2981.308	-28.12
2984.609	-27.94
2987.907	-28.12
2991.202	-28.67
2994.494	-28.94
2997.784	-29.12
3001.07	-29.22
3004.355	-30.12
3007.636	-31.49
3010.915	-31.67
3014.191	-32.22
3017.464	-32.31
3020.734	-33.12
3024.002	-34.12
3027.267	-35.12
3030.53	-35.67
3033.789	-36.58
3037.046	-37.31
3040.301	-37.12
3043.552	-37.58
3046.801	-38.03
3050.048	-37.67
3053.291	-38.94
3056.532	-39.22
3059.771	-38.76
3063.006	-38.49
3066.239	-38.49
3069.469	-38.49
3072.697	-38.94
3075.922	-39.49
3079.144	-39.49
3082.364	-40.03
3085.581	-40.85
3088.795	-40.58
3092.007	-41.58
3095.216	-41.85
3098.423	-42.31
3101.627	-42.4
3104.828	-42.22
3108.026	-41.67
3111.222	-42.12
3114.416	-41.76
3117.607	-41.94
3120.795	-42.58
3123.98	-43.49
3127.163	-42.67
3130.344	-43.22
3133.521	-42.4
3136.696	-42.58
3139.869	-42.94
3143.039	-44.03
3146.206	-44.03
3149.371	-45.03
3152.533	-45.22
3155.693	-45.03
3158.85	-43.94
3162.005	-44.76
3165.157	-45.12
3168.306	-45.94
3171.453	-46.49
3174.597	-46.85
3177.739	-46.31
3180.878	-47.12
3184.014	-46.67
3187.149	-46.49
3190.28	-46.4
3193.409	-47.76
3196.536	-47.12
3199.659	-46.94
3202.781	-47.67
3205.9	-47.67
3209.016	-48.49
3212.13	-48.58
3215.241	-48.12
3218.35	-48.76
3221.456	-48.85
3224.56	-49.31
3227.661	-49.4
3230.76	-49.76
3233.856	-50.22
3236.95	-50.22
3240.041	-51.22
3243.13	-51.03
3246.216	-51.4
3249.3	-51.67
3252.382	-51.67
3255.46	-52.22
3258.537	-52.22
3261.611	-51.76
3264.682	-51.94
3267.751	-51.58
3270.818	-51.58
3273.882	-50.94
3276.943	-50.22
3280.002	-49.94
3283.059	-50.03
3286.113	-49.85
3289.165	-49.76
3292.214	-49.67
3295.261	-49.76
3298.306	-49.85
3301.348	-49.94
3304.387	-49.76
3307.425	-49.94
3310.459	-50.76
3313.492	-51.03
3316.521	-51.22
3319.549	-51.4
3322.574	-51.67
3325.597	-52.4
3328.617	-53.03
3331.635	-53.31
3334.65	-53.76
3337.663	-53.58
3340.674	-53.76
3343.682	-54.12
3346.688	-54.67
3349.691	-55.12
3352.692	-54.94
3355.691	-54.85
3358.687	-54.85
3361.681	-55.22
3364.673	-55.49
3367.662	-55.12
3370.649	-55.94
3373.633	-55.49
3376.615	-55.22
3379.595	-55.22
3382.572	-54.76
3385.547	-54.67
3388.52	-54.85
3391.49	-54.58
3394.458	-54.31
3397.424	-54.31
3400.387	-54.94
3403.348	-54.76
3406.307	-55.31
3409.263	-55.31
3412.217	-55.12
3415.168	-55.31
3418.118	-55.94
3421.065	-56.12
3424.009	-56.31
3426.951	-55.4
3429.891	-55.12
3432.829	-55.12
3435.764	-55.4
3438.697	-55.58
3441.628	-55.76
3444.557	-56.03
3447.483	-55.85
3450.407	-56.12
3453.328	-56.12
3456.247	-55.76
3459.164	-56.58
3462.079	-56.67
3464.991	-56.76
3467.902	-56.49
3470.809	-56.49
3473.715	-56.58
3476.618	-57.22
3479.519	-57.49
3482.418	-57.4
3485.315	-57.4
3488.209	-58.67
3491.101	-58.67
3493.99	-58.4
3496.878	-57.94
3499.763	-58.03
3502.646	-57.85
3505.527	-58.22
3508.405	-58.49
3511.281	-58.58
3514.155	-58.67
3517.027	-58.31
3519.897	-57.58
3522.764	-57.58
3525.629	-58.03
3528.492	-58.4
3531.352	-57.67
3534.211	-57.94
3537.067	-57.12
3539.921	-56.12
3542.773	-56.58
3545.622	-56.85
3548.469	-56.94
3551.315	-57.12
3554.157	-57.12
3556.998	-57.76
3559.837	-57.49
3562.673	-57.94
3565.507	-58.03
3568.339	-58.76
3571.169	-59.67
3573.996	-59.49
3576.822	-59.58
3579.645	-60.03
3582.466	-59.85
3585.285	-60.4
3588.101	-60.03
3590.916	-61.03
3593.728	-61.22
3596.538	-61.31
3599.346	-61.85
3602.152	-61.12
3604.956	-61.49
3607.757	-61.67
3610.556	-61.94
3613.354	-61.76
3616.149	-61.76
3618.942	-61.76
3621.732	-61.12
3624.521	-61.67
3627.307	-61.94
3630.092	-61.31
3632.874	-61.76
3635.654	-61.12
3638.432	-60.03
3641.208	-59.67
3643.982	-60.4
3646.753	-60.31
3649.523	-60.49
3652.29	-60.94
3655.055	-61.22
3657.818	-60.67
3660.579	-60.85
3663.338	-61.4
3666.095	-62.12
3668.849	-63.31
3671.602	-63.85
3674.352	-64.12
3677.101	-64.4
3679.847	-64.4
3682.591	-64.31
3685.333	-63.31
3688.073	-64.03
3690.811	-63.85
3693.547	-63.67
3696.281	-63.31
3699.013	-63.22
3701.742	-62.67
3704.47	-62.67
3707.195	-62.58
3709.919	-62.85
3712.64	-62.58
3715.359	-62.94
3718.076	-62.85
3720.792	-63.22
3723.505	-62.67
3726.216	-62.58
3728.925	-62.76
3731.632	-63.31
3734.336	-62.58
3737.039	-62.49
3739.74	-61.22
3742.439	-61.67
3745.136	-62.31
3747.83	-62.49
3750.523	-62.12
3753.213	-62.49
3755.902	-63.03
3758.589	-62.49
3761.273	-62.31
3763.956	-63.12
3766.636	-63.67
3769.315	-64.31
3771.991	-65.4
3774.665	-67.67
3777.338	-67.58
3780.008	-68.31
3782.677	-68.67
3785.343	-68.49
3788.007	-68.31
3790.67	-68.4
3793.33	-67.49
3795.989	-66.67
3798.645	-66.31
3801.299	-65.22
3803.952	-62.31
3806.602	-62.22
3809.251	-61.85
3811.897	-61.4
3814.542	-61.12
3817.184	-61.31
3819.825	-61.31
3822.463	-61.94
3825.1	-62.4
3827.735	-63.4
3830.367	-63.22
3832.998	-63.12
3835.627	-62.67
3838.253	-62.67
3840.878	-62.94
3843.501	-62.76
3846.122	-62.94
3848.741	-62.67
3851.358	-62.76
3853.973	-62.03
3856.586	-60.67
3859.197	-59.31
3861.806	-57.12
3864.414	-53.22
3867.019	-45.03
3869.622	-33.76
3872.224	-21.85
3874.823	-12.76
3877.421	-7.31
3880.016	-3.85
3882.61	-3.12
3885.202	-3.22
3887.792	-4.22
3890.38	-6.67
3892.966	-10.58
3895.55	-18.31
3898.132	-29.03
3900.713	-41.4
3903.291	-50.49
3905.868	-56.22
3908.442	-59.67
3911.015	-60.76
3913.586	-61.58
3916.155	-61.67
3918.722	-61.67
3921.287	-61.85
3923.85	-62.67
3926.411	-63.12
3928.971	-63.31
3931.528	-63.4
3934.084	-63.85
3936.638	-63.94
3939.19	-64.4
3941.74	-64.85
3944.288	-64.85
3946.834	-64.31
3949.378	-63.94
3951.921	-63.12
3954.462	-63.03
3957	-62.67
3959.537	-62.76
3962.072	-61.85
3964.606	-61.49
3967.137	-61.03
3969.667	-60.76
3972.194	-60.67
3974.72	-61.49
3977.244	-61.94
3979.766	-61.85
3982.286	-61.76
3984.805	-61.94
3987.321	-61.76
3989.836	-62.03
3992.349	-62.03
3994.86	-62.12
3997.369	-61.85
3999.877	-61.76
4002.382	-62.12
4004.886	-62.03
4007.388	-62.94
4009.888	-63.22
4012.386	-63.31
4014.883	-63.58
4017.377	-63.76
4019.87	-64.12
4022.361	-64.12
4024.85	-64.22
4027.338	-64.31
4029.823	-64.49
4032.307	-65.03
4034.789	-64.76
4037.269	-64.76
4039.747	-64.67
4042.224	-64.4
4044.699	-64.12
4047.172	-63.67
4049.643	-63.49
4052.112	-63.03
4054.58	-63.22
4057.046	-62.12
4059.51	-61.12
4061.972	-60.67
4064.432	-60.31
4066.891	-59.67
4069.348	-59.49
4071.803	-59.4
4074.256	-59.58
4076.708	-59.58
4079.158	-60.22
4081.606	-60.49
4084.052	-61.03
4086.497	-61.4
4088.939	-61.67
4091.38	-61.94
4093.819	-50.85
4096.257	-40.85
4098.693	-30.94
4101.127	-21.76
4103.559	-12.67
4105.989	-3.76
4108.418	-3.49
4110.845	-4.22
4113.27	-5.13
4115.694	-5.49
4118.115	-5.4
4120.535	-16.76
4122.954	-27.31
4125.37	-37.94
4127.785	-47.49
4130.198	-57.03
4132.609	-66.33
4135.019	-66.79
4137.427	-66.12
4139.833	-65.55
4142.237	-65.29