File: Data/Raman/2017-08-24 - Glass, alluminum 108/Aluminum II [full set]/Alu-BS-108 30s,I=1, BC=3, 1sta _RamanShift_3.txt
Data from Alu-BS-108 30s,I=1, BC=3, 1sta _RamanShift_3.txt Node

Date: Thu Aug 24 13:52:51 IDT 2017
User: aro
Spectrometer: QEPB0276
Trigger mode: 0
Integration Time (sec): 3.000000E1
Scans to average: 1
Electric dark correction enabled: true
Nonlinearity correction enabled: false
Boxcar width: 5
XAxis mode: Raman Shifts
Number of Pixels in Spectrum: 1044
>>>>>Begin Spectral Data<<<<<
160.701	177.92
166.742	288.11
172.777	405.12
178.805	508.25
184.826	592.15
190.841	662.61
196.849	792.07
202.85	921.25
208.845	1051.8
214.833	1179.34
220.815	1293.16
226.789	1383.43
232.758	1440.52
238.719	1474.89
244.674	1501.8
250.623	1530.07
256.565	1560.34
262.5	1585.34
268.429	1612.16
274.351	1637.89
280.267	1662.34
286.176	1685.98
292.079	1709.52
297.975	1731.52
303.865	1753.43
309.748	1772.07
315.625	1791.34
321.495	1807.89
327.359	1823.52
333.217	1840.61
339.068	1856.52
344.912	1877.43
350.751	1907.43
356.583	1939.43
362.408	1967.34
368.227	1986.52
374.04	2006.25
379.847	2037.25
385.647	2097.61
391.44	2193.16
397.228	2284.8
403.009	2341.43
408.784	2356.61
414.553	2353.16
420.315	2337.89
426.071	2325.52
431.821	2316.7
437.565	2306.16
443.302	2275.61
449.033	2214.52
454.758	2113.89
460.477	2014.52
466.189	1945.7
471.896	1905.98
477.596	1862.7
483.29	1813.61
488.978	1754.25
494.66	1690.52
500.335	1621.16
506.005	1552.8
511.668	1480.25
517.325	1409.89
522.977	1335.7
528.622	1263.43
534.261	1194.34
539.894	1138.43
545.521	1094.25
551.141	1063.43
556.756	1039.8
562.365	1022.89
567.968	1008.61
573.565	998.89
579.155	991.43
584.74	984.52
590.319	978.25
595.892	971.89
601.459	963.98
607.02	959.16
612.575	961.89
618.124	974.8
623.667	993.34
629.204	1006.34
634.735	1004.7
640.261	996.16
645.781	985.8
651.294	974.52
656.802	965.8
662.304	956.7
667.8	945.34
673.29	923.25
678.775	890.25
684.254	852.52
689.726	822.34
695.193	806.61
700.655	797.34
706.11	791.89
711.56	789.8
717.004	789.16
722.442	793.25
727.874	798.25
733.301	804.8
738.722	809.61
744.137	815.34
749.547	819.89
754.951	827.07
760.349	835.52
765.741	845.8
771.128	852.98
776.509	859.25
781.885	860.52
787.254	860.07
792.618	859.34
797.977	859.43
803.33	856.8
808.677	854.89
814.019	849.8
819.355	841.8
824.686	830.8
830.011	818.34
835.33	804.34
840.644	790.7
845.952	775.7
851.255	761.8
856.552	749.8
861.844	737.16
867.13	724.89
872.41	712.25
877.686	700.98
882.955	690.43
888.219	681.98
893.478	674.07
898.731	667.16
903.979	663.89
909.221	658.43
914.458	654.25
919.69	652.16
924.916	649.52
930.136	646.8
935.351	644.89
940.561	642.43
945.766	639.07
950.965	635.8
956.158	632.43
961.347	627.43
966.529	624.52
971.707	620.16
976.879	614.89
982.046	610.98
987.208	610.52
992.364	608.61
997.515	608.7
1002.66	610.89
1007.801	614.98
1012.936	616.52
1018.066	620.25
1023.19	623.25
1028.309	625.34
1033.423	630.16
1038.532	632.89
1043.636	632.7
1048.734	633.7
1053.827	633.8
1058.915	632.8
1063.998	628.98
1069.075	627.25
1074.147	624.52
1079.214	622.43
1084.276	620.07
1089.333	614.07
1094.385	609.07
1099.431	605.43
1104.472	599.34
1109.509	592.52
1114.54	585.25
1119.565	580.52
1124.586	575.52
1129.602	570.43
1134.613	565.61
1139.618	563.43
1144.619	563.43
1149.614	563.07
1154.604	561.16
1159.589	561.52
1164.57	562.61
1169.545	563.25
1174.515	562.43
1179.48	561.8
1184.44	560.16
1189.395	559.89
1194.345	557.98
1199.29	556.52
1204.23	555.7
1209.165	555.43
1214.095	554.89
1219.021	553.52
1223.941	552.8
1228.856	551.34
1233.766	548.89
1238.672	547.16
1243.572	542.8
1248.467	536.25
1253.358	529.16
1258.244	522.61
1263.124	516.16
1268	510.25
1272.871	505.7
1277.737	501.43
1282.599	498.61
1287.455	497.34
1292.306	495.16
1297.153	494.61
1301.995	496.34
1306.832	498.07
1311.664	497.8
1316.491	496.7
1321.314	494.7
1326.132	492.34
1330.945	489.34
1335.753	484.7
1340.556	480.52
1345.354	475.98
1350.148	470.98
1354.937	465.43
1359.722	459.7
1364.501	453.98
1369.276	449.89
1374.046	445.07
1378.811	439.98
1383.572	434.7
1388.327	431.61
1393.079	427.7
1397.825	423.8
1402.567	420.34
1407.304	418.34
1412.036	416.52
1416.764	416.61
1421.487	416.43
1426.205	417.52
1430.919	419.34
1435.628	421.61
1440.333	422.89
1445.032	424.43
1449.727	426.34
1454.418	427.16
1459.104	427.34
1463.785	427.8
1468.462	427.34
1473.134	426.07
1477.802	425.98
1482.465	425.07
1487.123	425.52
1491.777	424.7
1496.426	423.43
1501.071	423.25
1505.711	423.25
1510.347	421.16
1514.978	418.98
1519.604	416.16
1524.226	413.43
1528.844	410.98
1533.457	412.8
1538.065	414.25
1542.669	413.89
1547.269	410.52
1551.864	406.25
1556.454	401.34
1561.041	398.43
1565.622	395.89
1570.199	393.89
1574.772	391.52
1579.34	387.89
1583.904	379.7
1588.464	369.98
1593.019	362.8
1597.569	360.16
1602.115	356.52
1606.657	353.25
1611.195	351.25
1615.728	348.07
1620.256	346.16
1624.78	344.7
1629.3	343.61
1633.816	341.89
1638.327	342.98
1642.834	344.52
1647.336	344.52
1651.834	345.89
1656.328	347.8
1660.817	347.7
1665.302	349.25
1669.783	349.61
1674.259	349.61
1678.732	348.8
1683.199	347.98
1687.663	345.16
1692.122	341.52
1696.577	338.52
1701.028	335.61
1705.474	331.89
1709.917	328.25
1714.355	323.8
1718.788	319.16
1723.218	314.43
1727.643	309.16
1732.064	304.98
1736.481	300.25
1740.893	296.52
1745.301	292.16
1749.705	287.7
1754.105	283.89
1758.501	281.89
1762.893	278.07
1767.28	275.98
1771.663	274.16
1776.042	272.61
1780.417	270.98
1784.787	270.16
1789.154	268.7
1793.516	266.8
1797.874	264.7
1802.228	262.34
1806.578	258.07
1810.924	255.8
1815.266	252.16
1819.603	247.89
1823.937	245.61
1828.266	242.43
1832.591	239.25
1836.913	236.25
1841.23	235.16
1845.543	234.7
1849.852	234.25
1854.156	233.98
1858.457	233.8
1862.754	234.16
1867.047	234.89
1871.335	234.8
1875.62	236.07
1879.9	237.07
1884.177	238.16
1888.449	238.25
1892.718	238.8
1896.982	239.07
1901.243	240.16
1905.499	240.34
1909.752	241.07
1914	241.61
1918.245	241.98
1922.485	240.98
1926.722	240.07
1930.954	239.43
1935.183	238.25
1939.408	235.25
1943.628	232.43
1947.845	228.8
1952.058	224.98
1956.267	220.43
1960.472	216.07
1964.673	211.16
1968.87	206.98
1973.063	201.89
1977.252	197.43
1981.438	193.61
1985.619	190.34
1989.797	188.16
1993.971	186.43
1998.14	185.25
2002.306	183.8
2006.469	182.52
2010.627	179.89
2014.781	178.98
2018.932	177.89
2023.078	176.8
2027.221	175.25
2031.36	173.8
2035.495	171.52
2039.627	169.8
2043.754	168.43
2047.878	167.25
2051.998	167.43
2056.114	168.43
2060.226	167.98
2064.334	168.34
2068.439	168.98
2072.54	169.34
2076.637	169.89
2080.73	169.89
2084.82	169.7
2088.906	168.98
2092.988	167.43
2097.066	165.34
2101.14	163.89
2105.211	161.8
2109.278	160.7
2113.342	158.89
2117.401	157.52
2121.457	155.16
2125.509	153.16
2129.558	151.07
2133.602	149.16
2137.643	148.07
2141.681	146.25
2145.714	144.16
2149.744	142.25
2153.77	139.07
2157.793	136.61
2161.812	133.7
2165.827	131.7
2169.838	130.89
2173.846	128.61
2177.851	126.43
2181.851	124.52
2185.848	122.25
2189.841	120.43
2193.831	119.7
2197.817	119.16
2201.799	117.7
2205.778	117.25
2209.753	116.52
2213.725	115.7
2217.693	115.7
2221.657	116.07
2225.618	115.07
2229.575	113.98
2233.529	113.7
2237.479	111.89
2241.425	110.16
2245.368	109.07
2249.307	108.25
2253.243	107.34
2257.175	105.98
2261.104	104.61
2265.029	102.25
2268.95	101.34
2272.868	101.43
2276.783	100.25
2280.694	99.7
2284.601	99.25
2288.505	98.43
2292.405	97.34
2296.302	96.89
2300.195	95.61
2304.085	95.61
2307.971	98.8
2311.854	107.43
2315.734	116.7
2319.609	121.8
2323.482	121.07
2327.351	119.98
2331.216	118.98
2335.078	117.7
2338.937	115.61
2342.792	114.07
2346.643	110.89
2350.492	106.7
2354.336	95.89
2358.178	84.34
2362.015	77.07
2365.85	76.07
2369.681	75.43
2373.508	74.34
2377.333	73.43
2381.153	72.8
2384.971	72.43
2388.785	72.7
2392.595	71.34
2396.402	70.89
2400.206	69.34
2404.007	68.7
2407.804	66.52
2411.597	65.89
2415.388	65.34
2419.174	65.34
2422.958	64.43
2426.738	63.52
2430.515	62.52
2434.289	62.25
2438.059	61.98
2441.825	61.98
2445.589	61.16
2449.349	61.8
2453.106	61.52
2456.859	61.52
2460.61	60.07
2464.356	59.98
2468.1	59.61
2471.84	59.34
2475.577	58.89
2479.311	58.25
2483.041	58.16
2486.768	57.43
2490.492	56.52
2494.213	56.07
2497.93	55.98
2501.644	55.61
2505.355	55.16
2509.062	54.89
2512.766	54.61
2516.467	53.98
2520.165	53.25
2523.859	52.61
2527.551	52.61
2531.239	52.8
2534.923	51.61
2538.605	49.89
2542.283	49.61
2545.958	48.8
2549.63	47.7
2553.299	47.34
2556.964	47.16
2560.626	46.7
2564.285	46.7
2567.941	45.34
2571.594	44.52
2575.243	44.7
2578.89	43.89
2582.533	43.61
2586.173	43.07
2589.809	43.07
2593.443	42.43
2597.073	41.61
2600.701	41.61
2604.325	39.61
2607.946	39.7
2611.564	38.8
2615.178	37.89
2618.79	37.52
2622.398	36.07
2626.004	34.89
2629.606	33.7
2633.205	32.89
2636.801	31.61
2640.394	30.07
2643.983	29.52
2647.57	28.8
2651.153	27.8
2654.734	27.25
2658.311	26.25
2661.885	24.7
2665.456	23.8
2669.025	23.34
2672.589	21.61
2676.151	20.98
2679.71	20.34
2683.266	19.61
2686.819	19.16
2690.368	18.52
2693.915	16.89
2697.458	16.07
2700.999	15.98
2704.536	15.7
2708.071	14.52
2711.602	15.07
2715.13	14.89
2718.656	14.34
2722.178	14.43
2725.697	14.16
2729.214	15.07
2732.727	15.07
2736.237	15.61
2739.744	15.98
2743.249	17.07
2746.75	17.8
2750.248	17.16
2753.743	16.7
2757.236	16.16
2760.725	15.43
2764.211	14.52
2767.695	13.07
2771.175	12.8
2774.652	12.07
2778.127	10.8
2781.598	9.34
2785.067	7.8
2788.532	6.98
2791.995	6.7
2795.455	5.7
2798.911	5.43
2802.365	4.8
2805.816	4.7
2809.264	4.61
2812.709	3.98
2816.151	3.89
2819.59	3.52
2823.026	3.7
2826.46	3.52
2829.89	3.34
2833.318	3.16
2836.742	2.8
2840.164	2.43
2843.583	1.34
2846.999	1.34
2850.412	1.8
2853.822	2.25
2857.229	2.52
2860.634	2.25
2864.035	2.7
2867.434	2.07
2870.83	2.34
2874.223	1.7
2877.613	1.61
2881	1.52
2884.385	-0.02
2887.766	-1.39
2891.145	-2.66
2894.521	-4.11
2897.894	-5.48
2901.264	-6.84
2904.631	-8.39
2907.996	-9.02
2911.358	-9.39
2914.717	-10.48
2918.073	-11.57
2921.426	-12.11
2924.777	-12.02
2928.124	-12.48
2931.469	-12.84
2934.811	-12.57
2938.15	-12.93
2941.487	-13.3
2944.821	-14.2
2948.152	-14.57
2951.48	-14.75
2954.805	-14.48
2958.128	-14.66
2961.447	-14.93
2964.765	-14.93
2968.079	-14.93
2971.39	-14.48
2974.699	-14.2
2978.005	-13.39
2981.308	-13.2
2984.609	-13.66
2987.907	-13.75
2991.202	-13.84
2994.494	-14.2
2997.784	-14.2
3001.07	-14.57
3004.355	-14.57
3007.636	-16.2
3010.915	-17.2
3014.191	-18.66
3017.464	-18.57
3020.734	-19.11
3024.002	-19.39
3027.267	-20.57
3030.53	-20.66
3033.789	-22.2
3037.046	-22.75
3040.301	-23.66
3043.552	-23.75
3046.801	-24.39
3050.048	-23.75
3053.291	-24.66
3056.532	-25.02
3059.771	-24.93
3063.006	-24.75
3066.239	-25.02
3069.469	-24.84
3072.697	-25.3
3075.922	-25.02
3079.144	-25.2
3082.364	-24.93
3085.581	-25.3
3088.795	-25.11
3092.007	-24.93
3095.216	-25.11
3098.423	-25.48
3101.627	-25.2
3104.828	-24.66
3108.026	-24.2
3111.222	-24.75
3114.416	-24.93
3117.607	-25.2
3120.795	-25.66
3123.98	-26.2
3127.163	-26.3
3130.344	-26.66
3133.521	-26.2
3136.696	-26.93
3139.869	-27.75
3143.039	-28.75
3146.206	-28.75
3149.371	-29.2
3152.533	-29.2
3155.693	-28.84
3158.85	-25.93
3162.005	-26.66
3165.157	-27.66
3168.306	-28.39
3171.453	-28.84
3174.597	-29.57
3177.739	-29.02
3180.878	-29.66
3184.014	-29.75
3187.149	-29.75
3190.28	-30.39
3193.409	-34.02
3196.536	-33.02
3199.659	-32.3
3202.781	-32.57
3205.9	-32.39
3209.016	-32.48
3212.13	-32.75
3215.241	-32.66
3218.35	-32.57
3221.456	-33.02
3224.56	-33.2
3227.661	-33.39
3230.76	-33.93
3233.856	-34.93
3236.95	-35.11
3240.041	-36.2
3243.13	-35.3
3246.216	-35.57
3249.3	-36.02
3252.382	-36.11
3255.46	-37.11
3258.537	-37.75
3261.611	-38.02
3264.682	-38.39
3267.751	-37.48
3270.818	-37.66
3273.882	-37.11
3276.943	-38.02
3280.002	-38.39
3283.059	-38.02
3286.113	-38.66
3289.165	-37.66
3292.214	-36.75
3295.261	-36.57
3298.306	-37.02
3301.348	-37.66
3304.387	-37.02
3307.425	-36.75
3310.459	-36.66
3313.492	-36.57
3316.521	-37.3
3319.549	-36.2
3322.574	-36.2
3325.597	-36.66
3328.617	-36.93
3331.635	-37.02
3334.65	-37.57
3337.663	-37.3
3340.674	-37.57
3343.682	-38.57
3346.688	-38.93
3349.691	-39.02
3352.692	-39.84
3355.691	-40.39
3358.687	-41.11
3361.681	-41.75
3364.673	-41.93
3367.662	-41.75
3370.649	-43.3
3373.633	-43.84
3376.615	-43.84
3379.595	-44.11
3382.572	-44.11
3385.547	-43.84
3388.52	-39.3
3391.49	-36.11
3394.458	-35.11
3397.424	-35.39
3400.387	-35.66
3403.348	-35.2
3406.307	-35.02
3409.263	-34.48
3412.217	-34.02
3415.168	-33.84
3418.118	-34.2
3421.065	-39.11
3424.009	-41.66
3426.951	-41.84
3429.891	-41.48
3432.829	-41.39
3435.764	-41.93
3438.697	-42.02
3441.628	-41.84
3444.557	-42.02
3447.483	-42.02
3450.407	-41.84
3453.328	-42.2
3456.247	-42.3
3459.164	-42.57
3462.079	-42.84
3464.991	-42.57
3467.902	-42.48
3470.809	-42.66
3473.715	-43.66
3476.618	-44.66
3479.519	-45.2
3482.418	-45.84
3485.315	-45.39
3488.209	-46.66
3491.101	-46.93
3493.99	-46.75
3496.878	-46.75
3499.763	-46.39
3502.646	-46.3
3505.527	-45.84
3508.405	-45.3
3511.281	-45.02
3514.155	-45.2
3517.027	-45.11
3519.897	-44.11
3522.764	-43.39
3525.629	-43.48
3528.492	-43.84
3531.352	-43.66
3534.211	-43.57
3537.067	-43.66
3539.921	-43.57
3542.773	-43.93
3545.622	-43.84
3548.469	-43.93
3551.315	-44.2
3554.157	-44.84
3556.998	-45.02
3559.837	-44.3
3562.673	-44.75
3565.507	-45.02
3568.339	-45.02
3571.169	-45.39
3573.996	-45.48
3576.822	-46.02
3579.645	-46.48
3582.466	-46.02
3585.285	-46.57
3588.101	-46.57
3590.916	-47.57
3593.728	-47.11
3596.538	-46.93
3599.346	-46.75
3602.152	-46.93
3604.956	-47.02
3607.757	-46.3
3610.556	-46.11
3613.354	-46.3
3616.149	-45.93
3618.942	-45.93
3621.732	-45.66
3624.521	-46.3
3627.307	-46.57
3630.092	-46.84
3632.874	-46.66
3635.654	-45.93
3638.432	-45.57
3641.208	-45.75
3643.982	-46.11
3646.753	-45.75
3649.523	-45.57
3652.29	-46.02
3655.055	-46.2
3657.818	-45.84
3660.579	-45.66
3663.338	-45.66
3666.095	-46.11
3668.849	-46.2
3671.602	-45.84
3674.352	-45.57
3677.101	-46.39
3679.847	-46.48
3682.591	-46.48
3685.333	-46.02
3688.073	-46.48
3690.811	-46.75
3693.547	-46.2
3696.281	-46.75
3699.013	-47.57
3701.742	-47.93
3704.47	-48.75
3707.195	-49.02
3709.919	-49.57
3712.64	-49.3
3715.359	-49.57
3718.076	-49.66
3720.792	-49.2
3723.505	-49.57
3726.216	-48.66
3728.925	-48.57
3731.632	-48.75
3734.336	-48.11
3737.039	-47.3
3739.74	-45.75
3742.439	-45.93
3745.136	-45.66
3747.83	-45.39
3750.523	-45.75
3753.213	-45.57
3755.902	-46.11
3758.589	-45.57
3761.273	-45.11
3763.956	-45.57
3766.636	-45.75
3769.315	-46.66
3771.991	-48.02
3774.665	-50.75
3777.338	-50.93
3780.008	-51.2
3782.677	-51.66
3785.343	-51.93
3788.007	-52.3
3790.67	-53.2
3793.33	-52.57
3795.989	-52.93
3798.645	-52.93
3801.299	-51.66
3803.952	-49.39
3806.602	-49.39
3809.251	-49.2
3811.897	-49.02
3814.542	-49.2
3817.184	-49.02
3819.825	-48.75
3822.463	-49.11
3825.1	-49.3
3827.735	-50.02
3830.367	-49.66
3832.998	-49.39
3835.627	-48.93
3838.253	-48.84
3840.878	-49.11
3843.501	-48.11
3846.122	-48.11
3848.741	-47.48
3851.358	-48.02
3853.973	-46.75
3856.586	-45.02
3859.197	-44.3
3861.806	-43.11
3864.414	-40.84
3867.019	-35.84
3869.622	-29.11
3872.224	-22.11
3874.823	-17.3
3877.421	-14.02
3880.016	-11.39
3882.61	-11.2
3885.202	-11.93
3887.792	-12.48
3890.38	-13.39
3892.966	-15.84
3895.55	-20.57
3898.132	-27.02
3900.713	-34.57
3903.291	-39.84
3905.868	-43.93
3908.442	-46.39
3911.015	-47.3
3913.586	-48.3
3916.155	-49.02
3918.722	-49.2
3921.287	-49.93
3923.85	-50.75
3926.411	-50.57
3928.971	-51.11
3931.528	-50.75
3934.084	-50.39
3936.638	-50.02
3939.19	-50.75
3941.74	-50.39
3944.288	-50.48
3946.834	-50.11
3949.378	-48.93
3951.921	-48.3
3954.462	-48.02
3957	-47.02
3959.537	-47.02
3962.072	-46.57
3964.606	-46.57
3967.137	-45.48
3969.667	-45.2
3972.194	-44.3
3974.72	-44.48
3977.244	-45.2
3979.766	-44.66
3982.286	-44.93
3984.805	-45.57
3987.321	-45.84
3989.836	-46.02
3992.349	-46.02
3994.86	-46.66
3997.369	-46.84
3999.877	-47.48
4002.382	-48.39
4004.886	-48.66
4007.388	-49.75
4009.888	-50.11
4012.386	-50.2
4014.883	-50.39
4017.377	-50.2
4019.87	-50.48
4022.361	-50.48
4024.85	-50.57
4027.338	-50.02
4029.823	-49.57
4032.307	-48.84
4034.789	-48.57
4037.269	-47.84
4039.747	-47.84
4042.224	-47.39
4044.699	-47.66
4047.172	-47.11
4049.643	-46.93
4052.112	-46.3
4054.58	-46.66
4057.046	-46.39
4059.51	-46.3
4061.972	-46.11
4064.432	-46.57
4066.891	-46.39
4069.348	-46.66
4071.803	-46.3
4074.256	-46.84
4076.708	-46.48
4079.158	-47.2
4081.606	-47.39
4084.052	-47.75
4086.497	-48.11
4088.939	-48.39
4091.38	-48.66
4093.819	-42.11
4096.257	-36.11
4098.693	-30.75
4101.127	-24.75
4103.559	-19.39
4105.989	-13.84
4108.418	-13.66
4110.845	-14.39
4113.27	-14.75
4115.694	-14.93
4118.115	-14.75
4120.535	-20.93
4122.954	-26.93
4125.37	-33.11
4127.785	-39.39
4130.198	-45.2
4132.609	-50.95
4135.019	-51.31
4137.427	-50.5
4139.833	-50.46
4142.237	-50.08