File: Data/Raman/2017-08-24 - Glass, alluminum 108/Aluminum II [full set]/Alu-BS-107 30s,I=1, BC=3, 1sta _RamanShift_3.txt
Data from Alu-BS-107 30s,I=1, BC=3, 1sta _RamanShift_3.txt Node

Date: Thu Aug 24 13:49:21 IDT 2017
User: aro
Spectrometer: QEPB0276
Trigger mode: 0
Integration Time (sec): 3.000000E1
Scans to average: 1
Electric dark correction enabled: true
Nonlinearity correction enabled: false
Boxcar width: 5
XAxis mode: Raman Shifts
Number of Pixels in Spectrum: 1044
>>>>>Begin Spectral Data<<<<<
160.701	198.96
166.742	300.84
172.777	410.38
178.805	507.01
184.826	585.42
190.841	649.76
196.849	766.03
202.85	885.67
208.845	1007.49
214.833	1125.85
220.815	1233.03
226.789	1315.4
232.758	1368.76
238.719	1400.03
244.674	1423.03
250.623	1449.58
256.565	1477.22
262.5	1505.58
268.429	1529.94
274.351	1554.76
280.267	1580.03
286.176	1601.85
292.079	1624.22
297.975	1647.67
303.865	1670.03
309.748	1692.94
315.625	1712.94
321.495	1731.67
327.359	1748.22
333.217	1766.4
339.068	1784.94
344.912	1807.85
350.751	1841.12
356.583	1880.31
362.408	1909.58
368.227	1929.49
374.04	1948.4
379.847	1982.94
385.647	2047.58
391.44	2148.31
397.228	2248.31
403.009	2307.76
408.784	2324.4
414.553	2320.76
420.315	2303.58
426.071	2289.12
431.821	2281.12
437.565	2268.58
443.302	2235.4
449.033	2170.12
454.758	2066.85
460.477	1962.58
466.189	1891.31
471.896	1847.85
477.596	1801.76
483.29	1748.4
488.978	1686.67
494.66	1617.22
500.335	1545.94
506.005	1471.03
511.668	1394.31
517.325	1316.22
522.977	1235.12
528.622	1156.22
534.261	1082.85
539.894	1023.31
545.521	976.03
551.141	942.03
556.756	919.31
562.365	900.03
567.968	887.22
573.565	877.31
579.155	870.22
584.74	864.67
590.319	858.58
595.892	852.76
601.459	845.85
607.02	841.67
612.575	845.67
618.124	859.76
623.667	880.67
629.204	892.94
634.735	891.58
640.261	881.67
645.781	871.03
651.294	859.49
656.802	850.58
662.304	840.49
667.8	827.67
673.29	805.58
678.775	771.67
684.254	732.85
689.726	702.49
695.193	687.49
700.655	680.03
706.11	673.85
711.56	673.76
717.004	673.85
722.442	678.94
727.874	685.94
733.301	694.85
738.722	700.31
744.137	704.12
749.547	710.03
754.951	716.85
760.349	724.85
765.741	736.22
771.128	743.85
776.509	749.03
781.885	750.67
787.254	748.76
792.618	746.4
797.977	746.94
803.33	748.31
808.677	746.58
814.019	741.12
819.355	732.22
824.686	720.58
830.011	708.58
835.33	694.03
840.644	679.22
845.952	665.03
851.255	649.85
856.552	634.85
861.844	621.12
867.13	608.49
872.41	596.22
877.686	585.03
882.955	574.12
888.219	564.31
893.478	557.4
898.731	550.94
903.979	546.76
909.221	543.31
914.458	541.03
919.69	538.22
924.916	535.85
930.136	534.76
935.351	532.85
940.561	531.49
945.766	528.76
950.965	527.03
956.158	525.22
961.347	521.22
966.529	517.85
971.707	514.67
976.879	511.22
982.046	509.13
987.208	507.85
992.364	508.03
997.515	508.49
1002.66	510.03
1007.801	511.67
1012.936	515.31
1018.066	519.76
1023.19	523.58
1028.309	527.94
1033.423	531.22
1038.532	533.4
1043.636	535.12
1048.734	536.4
1053.827	537.85
1058.915	537.49
1063.998	536.58
1069.075	533.58
1074.147	530.76
1079.214	527.22
1084.276	521.03
1089.333	515.85
1094.385	510.31
1099.431	506.22
1104.472	500.4
1109.509	493.03
1114.54	486.76
1119.565	482.76
1124.586	478.49
1129.602	475.67
1134.613	473.4
1139.618	472.76
1144.619	472.4
1149.614	472.31
1154.604	471.22
1159.589	471.76
1164.57	473.03
1169.545	474.67
1174.515	474.58
1179.48	475.58
1184.44	475.49
1189.395	475.03
1194.345	473.94
1199.29	474.22
1204.23	475.22
1209.165	474.94
1214.095	475.31
1219.021	475.67
1223.941	474.03
1228.856	471.76
1233.766	468.03
1238.672	464.31
1243.572	459.94
1248.467	454.67
1253.358	448.12
1258.244	442.4
1263.124	436.49
1268	430.4
1272.871	425.12
1277.737	421.49
1282.599	419.31
1287.455	418.31
1292.306	416.67
1297.153	417.03
1301.995	417.67
1306.832	418.67
1311.664	418.49
1316.491	418.12
1321.314	417.12
1326.132	415.49
1330.945	413.49
1335.753	411.03
1340.556	407.22
1345.354	403.76
1350.148	398.67
1354.937	394.49
1359.722	390.76
1364.501	386.12
1369.276	383.49
1374.046	378.76
1378.811	374.85
1383.572	371.31
1388.327	366.58
1393.079	363.12
1397.825	360.22
1402.567	357.94
1407.304	355.94
1412.036	354.31
1416.764	353.94
1421.487	352.4
1426.205	354.12
1430.919	355.94
1435.628	357.49
1440.333	358.94
1445.032	360.76
1449.727	362.03
1454.418	363.49
1459.104	363.94
1463.785	363.03
1468.462	362.12
1473.134	361.76
1477.802	361.03
1482.465	359.03
1487.123	358.49
1491.777	358.03
1496.426	357.22
1501.071	356.31
1505.711	355.67
1510.347	354.85
1514.978	353.49
1519.604	350.58
1524.226	348.12
1528.844	346.76
1533.457	349.03
1538.065	353.22
1542.669	354.76
1547.269	353.22
1551.864	349.76
1556.454	346.4
1561.041	344.22
1565.622	343.31
1570.199	343.03
1574.772	340.85
1579.34	338.12
1583.904	330.85
1588.464	320.85
1593.019	313.94
1597.569	309.12
1602.115	307.67
1606.657	305.22
1611.195	301.85
1615.728	299.58
1620.256	297.31
1624.78	296.58
1629.3	295.03
1633.816	294.49
1638.327	294.85
1642.834	295.22
1647.336	295.76
1651.834	296.22
1656.328	297.03
1660.817	298.4
1665.302	298.49
1669.783	297.94
1674.259	297.03
1678.732	294.4
1683.199	293.22
1687.663	290.31
1692.122	286.94
1696.577	283.85
1701.028	279.76
1705.474	275.67
1709.917	271.67
1714.355	267.4
1718.788	262.76
1723.218	257.85
1727.643	253.49
1732.064	248.03
1736.481	244.22
1740.893	240.67
1745.301	236.76
1749.705	232.67
1754.105	228.31
1758.501	225.4
1762.893	222.67
1767.28	220.12
1771.663	218.49
1776.042	216.94
1780.417	216.03
1784.787	213.94
1789.154	211.94
1793.516	209.85
1797.874	207.4
1802.228	205.31
1806.578	202.22
1810.924	198.76
1815.266	196.58
1819.603	192.85
1823.937	190.67
1828.266	187.76
1832.591	185.12
1836.913	183.31
1841.23	182.03
1845.543	182.4
1849.852	182.22
1854.156	181.94
1858.457	181.58
1862.754	181.31
1867.047	182.85
1871.335	183.58
1875.62	183.4
1879.9	183.85
1884.177	184.03
1888.449	183.76
1892.718	183.58
1896.982	184.03
1901.243	183.31
1905.499	183.49
1909.752	184.03
1914	183.12
1918.245	182.22
1922.485	181.67
1926.722	180.03
1930.954	179.31
1935.183	178.76
1939.408	176.49
1943.628	173.94
1947.845	171.76
1952.058	168.94
1956.267	164.58
1960.472	160.22
1964.673	156.58
1968.87	153.76
1973.063	151.03
1977.252	146.85
1981.438	144.49
1985.619	142.22
1989.797	139.67
1993.971	138.49
1998.14	136.31
2002.306	135.85
2006.469	136.12
2010.627	135.31
2014.781	134.03
2018.932	132.85
2023.078	132.4
2027.221	129.94
2031.36	128.49
2035.495	127.31
2039.627	125.94
2043.754	125.76
2047.878	124.49
2051.998	124.31
2056.114	123.76
2060.226	123.85
2064.334	124.22
2068.439	124.67
2072.54	124.94
2076.637	125.12
2080.73	125.22
2084.82	124.31
2088.906	122.76
2092.988	122.22
2097.066	119.76
2101.14	118.12
2105.211	116.94
2109.278	115.4
2113.342	113.4
2117.401	111.49
2121.457	110.03
2125.509	108.76
2129.558	107.12
2133.602	106.22
2137.643	104.67
2141.681	103.85
2145.714	102.76
2149.744	100.94
2153.77	99.12
2157.793	96.85
2161.812	95.58
2165.827	93.67
2169.838	91.94
2173.846	90.58
2177.851	89.31
2181.851	87.67
2185.848	85.31
2189.841	83.67
2193.831	82.12
2197.817	81.03
2201.799	80.49
2205.778	79.67
2209.753	79.31
2213.725	78.31
2217.693	77.94
2221.657	77.4
2225.618	76.58
2229.575	76.31
2233.529	76.22
2237.479	75.03
2241.425	74.12
2245.368	73.22
2249.307	72.22
2253.243	70.94
2257.175	70.22
2261.104	69.22
2265.029	68.03
2268.95	67.4
2272.868	67.22
2276.783	65.85
2280.694	65.67
2284.601	64.22
2288.505	63.67
2292.405	62.85
2296.302	62.4
2300.195	61.58
2304.085	61.76
2307.971	65.58
2311.854	74.31
2315.734	85.03
2319.609	90.03
2323.482	90.22
2327.351	90.67
2331.216	89.58
2335.078	89.22
2338.937	87.31
2342.792	85.85
2346.643	83.31
2350.492	77.58
2354.336	66.85
2358.178	53.85
2362.015	47.22
2365.85	45.12
2369.681	43.67
2373.508	42.76
2377.333	41.58
2381.153	41.22
2384.971	40.85
2388.785	40.12
2392.595	39.22
2396.402	38.4
2400.206	37.85
2404.007	37.12
2407.804	35.4
2411.597	34.94
2415.388	34.4
2419.174	33.94
2422.958	33.4
2426.738	32.22
2430.515	31.49
2434.289	31.67
2438.059	31.58
2441.825	31.49
2445.589	30.76
2449.349	31.4
2453.106	30.85
2456.859	30.22
2460.61	30.13
2464.356	29.31
2468.1	29.67
2471.84	28.67
2475.577	28.12
2479.311	27.4
2483.041	26.76
2486.768	26.4
2490.492	25.76
2494.213	25.4
2497.93	25.94
2501.644	25.03
2505.355	24.58
2509.062	24.31
2512.766	24.49
2516.467	23.49
2520.165	22.49
2523.859	21.49
2527.551	21.31
2531.239	20.49
2534.923	19.85
2538.605	18.76
2542.283	17.76
2545.958	17.76
2549.63	16.49
2553.299	16.4
2556.964	15.85
2560.626	16.22
2564.285	15.76
2567.941	14.4
2571.594	14.4
2575.243	13.67
2578.89	12.31
2582.533	11.67
2586.173	11.49
2589.809	12.03
2593.443	11.67
2597.073	11.31
2600.701	10.58
2604.325	10.22
2607.946	10.4
2611.564	9.31
2615.178	8.49
2618.79	8.03
2622.398	8.03
2626.004	6.85
2629.606	4.76
2633.205	3.67
2636.801	2.76
2640.394	1.4
2643.983	0.4
2647.57	-0.78
2651.153	-1.15
2654.734	-1.06
2658.311	-1.78
2661.885	-2.51
2665.456	-3.78
2669.025	-3.78
2672.589	-5.15
2676.151	-5.88
2679.71	-5.88
2683.266	-6.6
2686.819	-7.51
2690.368	-8.97
2693.915	-10.6
2697.458	-11.06
2700.999	-12.15
2704.536	-12.24
2708.071	-13.42
2711.602	-13.15
2715.13	-13.06
2718.656	-13.33
2722.178	-13.24
2725.697	-12.97
2729.214	-12.42
2732.727	-12.51
2736.237	-11.97
2739.744	-11.97
2743.249	-11.42
2746.75	-11.69
2750.248	-11.88
2753.743	-12.33
2757.236	-13.33
2760.725	-14.78
2764.211	-15.33
2767.695	-15.78
2771.175	-15.88
2774.652	-16.6
2778.127	-17.33
2781.598	-18.78
2785.067	-18.88
2788.532	-20.06
2791.995	-20.42
2795.455	-20.88
2798.911	-20.06
2802.365	-20.51
2805.816	-20.6
2809.264	-21.42
2812.709	-22.06
2816.151	-22.42
2819.59	-22.51
2823.026	-21.97
2826.46	-21.69
2829.89	-21.88
2833.318	-22.06
2836.742	-22.88
2840.164	-23.33
2843.583	-23.88
2846.999	-23.42
2850.412	-23.88
2853.822	-23.42
2857.229	-23.69
2860.634	-24.51
2864.035	-25.33
2867.434	-25.97
2870.83	-26.06
2874.223	-26.69
2877.613	-26.97
2881	-28.06
2884.385	-29.33
2887.766	-30.06
2891.145	-31.88
2894.521	-32.24
2897.894	-33.33
2901.264	-33.97
2904.631	-34.97
2907.996	-35.42
2911.358	-36.24
2914.717	-36.88
2918.073	-37.69
2921.426	-38.15
2924.777	-37.78
2928.124	-37.42
2931.469	-37.88
2934.811	-38.06
2938.15	-37.97
2941.487	-38.51
2944.821	-39.42
2948.152	-39.33
2951.48	-40.15
2954.805	-39.97
2958.128	-40.15
2961.447	-41.15
2964.765	-41.69
2968.079	-42.88
2971.39	-42.6
2974.699	-42.97
2978.005	-42.69
2981.308	-43.06
2984.609	-43.42
2987.907	-43.6
2991.202	-43.42
2994.494	-43.69
2997.784	-43.42
3001.07	-43.78
3004.355	-43.15
3007.636	-44.51
3010.915	-44.6
3014.191	-45.88
3017.464	-45.69
3020.734	-46.33
3024.002	-46.33
3027.267	-47.33
3030.53	-47.33
3033.789	-48.51
3037.046	-48.78
3040.301	-49.06
3043.552	-49.06
3046.801	-49.97
3050.048	-49.6
3053.291	-50.69
3056.532	-50.88
3059.771	-50.69
3063.006	-50.33
3066.239	-51.33
3069.469	-51.15
3072.697	-51.88
3075.922	-52.51
3079.144	-52.78
3082.364	-53.33
3085.581	-53.6
3088.795	-53.42
3092.007	-53.97
3095.216	-54.97
3098.423	-56.15
3101.627	-55.6
3104.828	-55.78
3108.026	-55.15
3111.222	-55.88
3114.416	-56.06
3117.607	-55.97
3120.795	-56.42
3123.98	-57.42
3127.163	-56.97
3130.344	-57.06
3133.521	-56.15
3136.696	-56.88
3139.869	-57.42
3143.039	-58.33
3146.206	-57.42
3149.371	-57.97
3152.533	-57.51
3155.693	-57.33
3158.85	-56.6
3162.005	-57.78
3165.157	-57.78
3168.306	-58.88
3171.453	-58.88
3174.597	-58.78
3177.739	-58.24
3180.878	-59.06
3184.014	-58.69
3187.149	-58.88
3190.28	-59.24
3193.409	-59.78
3196.536	-59.06
3199.659	-59.42
3202.781	-59.78
3205.9	-60.33
3209.016	-60.97
3212.13	-61.33
3215.241	-61.24
3218.35	-61.69
3221.456	-62.42
3224.56	-62.78
3227.661	-62.88
3230.76	-62.88
3233.856	-62.88
3236.95	-62.78
3240.041	-63.15
3243.13	-63.06
3246.216	-63.42
3249.3	-63.6
3252.382	-63.42
3255.46	-63.51
3258.537	-63.51
3261.611	-63.51
3264.682	-64.06
3267.751	-64.15
3270.818	-64.51
3273.882	-64.69
3276.943	-64.78
3280.002	-64.78
3283.059	-65.33
3286.113	-66.24
3289.165	-66.78
3292.214	-66.78
3295.261	-67.24
3298.306	-67.51
3301.348	-68.06
3304.387	-67.88
3307.425	-67.78
3310.459	-68.15
3313.492	-68.6
3316.521	-69.24
3319.549	-68.42
3322.574	-67.88
3325.597	-68.15
3328.617	-67.97
3331.635	-67.69
3334.65	-68.06
3337.663	-67.88
3340.674	-67.69
3343.682	-67.88
3346.688	-67.15
3349.691	-66.78
3352.692	-67.15
3355.691	-67.24
3358.687	-67.6
3361.681	-68.42
3364.673	-68.78
3367.662	-68.33
3370.649	-68.97
3373.633	-69.24
3376.615	-69.24
3379.595	-69.6
3382.572	-69.15
3385.547	-69.51
3388.52	-70.06
3391.49	-69.6
3394.458	-68.97
3397.424	-69.24
3400.387	-69.69
3403.348	-69.69
3406.307	-69.88
3409.263	-69.69
3412.217	-69.69
3415.168	-69.97
3418.118	-69.97
3421.065	-69.6
3424.009	-69.88
3426.951	-69.78
3429.891	-69.33
3432.829	-68.42
3435.764	-68.06
3438.697	-68.15
3441.628	-68.42
3444.557	-68.51
3447.483	-68.24
3450.407	-67.33
3453.328	-67.42
3456.247	-66.78
3459.164	-66.33
3462.079	-66.69
3464.991	-66.88
3467.902	-66.69
3470.809	-66.6
3473.715	-66.51
3476.618	-67.51
3479.519	-67.88
3482.418	-69.15
3485.315	-69.24
3488.209	-70.69
3491.101	-71.6
3493.99	-71.42
3496.878	-71.6
3499.763	-72.06
3502.646	-72.24
3505.527	-72.88
3508.405	-72.78
3511.281	-73.24
3514.155	-73.42
3517.027	-73.51
3519.897	-73.06
3522.764	-72.97
3525.629	-73.33
3528.492	-73.6
3531.352	-73.51
3534.211	-72.97
3537.067	-72.06
3539.921	-72.06
3542.773	-72.06
3545.622	-71.78
3548.469	-71.33
3551.315	-71.78
3554.157	-71.42
3556.998	-71.42
3559.837	-71.24
3562.673	-70.78
3565.507	-70.88
3568.339	-71.33
3571.169	-71.33
3573.996	-71.69
3576.822	-71.6
3579.645	-71.88
3582.466	-71.24
3585.285	-72.42
3588.101	-72.69
3590.916	-73.88
3593.728	-74.15
3596.538	-74.97
3599.346	-75.33
3602.152	-75.15
3604.956	-75.42
3607.757	-75.88
3610.556	-76.15
3613.354	-76.15
3616.149	-75.88
3618.942	-76.15
3621.732	-75.51
3624.521	-76.06
3627.307	-76.15
3630.092	-76.06
3632.874	-76.24
3635.654	-76.15
3638.432	-75.33
3641.208	-76.24
3643.982	-77.15
3646.753	-77.06
3649.523	-76.97
3652.29	-76.88
3655.055	-77.42
3657.818	-76.88
3660.579	-76.78
3663.338	-77.06
3666.095	-76.51
3668.849	-77.42
3671.602	-76.88
3674.352	-76.33
3677.101	-76.42
3679.847	-75.97
3682.591	-75.97
3685.333	-75.33
3688.073	-75.51
3690.811	-75.6
3693.547	-75.33
3696.281	-75.51
3699.013	-75.15
3701.742	-75.15
3704.47	-75.88
3707.195	-76.51
3709.919	-77.15
3712.64	-77.51
3715.359	-77.78
3718.076	-78.88
3720.792	-79.24
3723.505	-79.69
3726.216	-79.51
3728.925	-80.24
3731.632	-81.15
3734.336	-80.88
3737.039	-80.69
3739.74	-80.97
3742.439	-81.15
3745.136	-81.69
3747.83	-81.06
3750.523	-80.69
3753.213	-80.33
3755.902	-81.24
3758.589	-80.33
3761.273	-79.42
3763.956	-79.24
3766.636	-78.97
3769.315	-77.97
3771.991	-79.06
3774.665	-80.6
3777.338	-80.42
3780.008	-81.06
3782.677	-80.97
3785.343	-80.24
3788.007	-80.42
3790.67	-80.24
3793.33	-79.78
3795.989	-79.42
3798.645	-79.06
3801.299	-77.69
3803.952	-75.51
3806.602	-75.88
3809.251	-75.6
3811.897	-75.6
3814.542	-76.33
3817.184	-76.42
3819.825	-77.33
3822.463	-77.78
3825.1	-78.33
3827.735	-79.24
3830.367	-79.51
3832.998	-79.51
3835.627	-79.33
3838.253	-79.15
3840.878	-79.69
3843.501	-78.69
3846.122	-79.06
3848.741	-78.51
3851.358	-78.6
3853.973	-77.6
3856.586	-76.42
3859.197	-74.33
3861.806	-70.33
3864.414	-62.97
3867.019	-51.42
3869.622	-34.24
3872.224	-16.24
3874.823	-1.06
3877.421	7.85
3880.016	13.58
3882.61	15.22
3885.202	15.4
3887.792	14.49
3890.38	10.94
3892.966	3.85
3895.55	-7.06
3898.132	-23.24
3900.713	-41.24
3903.291	-56.42
3905.868	-65.24
3908.442	-71.06
3911.015	-73.33
3913.586	-74.42
3916.155	-75.6
3918.722	-76.42
3921.287	-76.51
3923.85	-77.69
3926.411	-78.33
3928.971	-79.33
3931.528	-79.42
3934.084	-79.97
3936.638	-79.51
3939.19	-80.24
3941.74	-80.24
3944.288	-79.88
3946.834	-78.88
3949.378	-78.42
3951.921	-78.15
3954.462	-78.15
3957	-77.97
3959.537	-77.88
3962.072	-77.42
3964.606	-77.69
3967.137	-76.69
3969.667	-76.6
3972.194	-76.51
3974.72	-77.51
3977.244	-77.78
3979.766	-77.06
3982.286	-76.78
3984.805	-76.69
3987.321	-76.24
3989.836	-76.15
3992.349	-75.97
3994.86	-76.33
3997.369	-76.15
3999.877	-76.15
4002.382	-75.88
4004.886	-75.6
4007.388	-76.51
4009.888	-76.6
4012.386	-76.24
4014.883	-76.97
4017.377	-76.78
4019.87	-77.33
4022.361	-77.51
4024.85	-78.15
4027.338	-78.33
4029.823	-78.6
4032.307	-79.15
4034.789	-78.42
4037.269	-78.24
4039.747	-78.42
4042.224	-78.06
4044.699	-78.15
4047.172	-77.6
4049.643	-77.6
4052.112	-77.06
4054.58	-76.97
4057.046	-76.42
4059.51	-76.06
4061.972	-76.06
4064.432	-75.97
4066.891	-75.97
4069.348	-76.33
4071.803	-76.42
4074.256	-76.88
4076.708	-76.6
4079.158	-76.69
4081.606	-76.78
4084.052	-77.78
4086.497	-78.06
4088.939	-78.51
4091.38	-79.24
4093.819	-64.6
4096.257	-50.51
4098.693	-36.88
4101.127	-23.97
4103.559	-11.78
4105.989	-0.78
4108.418	-0.78
4110.845	-0.33
4113.27	-0.6
4115.694	-0.78
4118.115	-0.33
4120.535	-14.42
4122.954	-28.51
4125.37	-42.6
4127.785	-55.51
4130.198	-67.78
4132.609	-79.28
4135.019	-79.54
4137.427	-79.5
4139.833	-79.3
4142.237	-78.88