File: Data/Raman/2017-08-24 - Glass, alluminum 108/Aluminum II [full set]/Alu-BS-control 30s,I=1, BC=3, 1sta _RamanShift_3.txt
Data from Alu-BS-control 30s,I=1, BC=3, 1sta _RamanShift_3.txt Node

Date: Thu Aug 24 13:44:21 IDT 2017
User: aro
Spectrometer: QEPB0276
Trigger mode: 0
Integration Time (sec): 3.000000E1
Scans to average: 1
Electric dark correction enabled: true
Nonlinearity correction enabled: false
Boxcar width: 5
XAxis mode: Raman Shifts
Number of Pixels in Spectrum: 1044
>>>>>Begin Spectral Data<<<<<
160.701	178.96
166.742	272.84
172.777	370.62
178.805	457.01
184.826	526.52
190.841	584.67
196.849	689.22
202.85	796.12
208.845	903.67
214.833	1008.4
220.815	1103.03
226.789	1175.94
232.758	1222.31
238.719	1250.03
244.674	1270.85
250.623	1294.94
256.565	1319.31
262.5	1343.76
268.429	1368.49
274.351	1391.58
280.267	1414.58
286.176	1435.67
292.079	1458.76
297.975	1479.49
303.865	1500.67
309.748	1520.67
315.625	1538.22
321.495	1556.31
327.359	1573.12
333.217	1589.58
339.068	1611.31
344.912	1635.76
350.751	1670.76
356.583	1709.58
362.408	1741.03
368.227	1762.76
374.04	1785.49
379.847	1821.31
385.647	1888.31
391.44	1993.58
397.228	2097.12
403.009	2158.03
408.784	2175.49
414.553	2172.94
420.315	2156.94
426.071	2143.76
431.821	2134.76
437.565	2123.4
443.302	2091.94
449.033	2026.12
454.758	1918.67
460.477	1811.67
466.189	1739.12
471.896	1693.76
477.596	1645.67
483.29	1590.49
488.978	1526.76
494.66	1458.31
500.335	1383.4
506.005	1307.67
511.668	1230.4
517.325	1151.85
522.977	1070.67
528.622	989.76
534.261	918.49
539.894	857.94
545.521	811.22
551.141	777.49
556.756	751.12
562.365	731.58
567.968	720.12
573.565	709.76
579.155	703.76
584.74	698.67
590.319	693.85
595.892	685.76
601.459	680.67
607.02	677.76
612.575	682.22
618.124	699.94
623.667	725.03
629.204	738.58
634.735	739.03
640.261	730.03
645.781	719.22
651.294	708.4
656.802	700.4
662.304	691.22
667.8	678.22
673.29	656.03
678.775	622.22
684.254	580.94
689.726	549.49
695.193	532.58
700.655	525.4
706.11	520.85
711.56	519.85
717.004	521.31
722.442	525.4
727.874	533.03
733.301	541.49
738.722	547.12
744.137	552.67
749.547	559.49
754.951	568.76
760.349	576.4
765.741	586.58
771.128	594.67
776.509	600.94
781.885	604.4
787.254	603.94
792.618	602.94
797.977	603.76
803.33	605.12
808.677	603.58
814.019	598.58
819.355	591.03
824.686	579.85
830.011	566.94
835.33	552.94
840.644	536.94
845.952	521.4
851.255	506.76
856.552	492.03
861.844	476.76
867.13	464.31
872.41	450.85
877.686	439.03
882.955	428.94
888.219	420.67
893.478	414.31
898.731	409.49
903.979	405.94
909.221	402.67
914.458	400.12
919.69	398.12
924.916	395.31
930.136	394.22
935.351	392.94
940.561	391.31
945.766	389.22
950.965	386.4
956.158	384.85
961.347	382.22
966.529	379.94
971.707	376.85
976.879	374.31
982.046	372.4
987.208	372.31
992.364	372.67
997.515	372.94
1002.66	375.4
1007.801	378.22
1012.936	380.94
1018.066	385.22
1023.19	389.22
1028.309	393.85
1033.423	396.49
1038.532	398.67
1043.636	399.85
1048.734	401.31
1053.827	403.58
1058.915	404.4
1063.998	403.76
1069.075	402.03
1074.147	399.58
1079.214	397.12
1084.276	393.12
1089.333	390.58
1094.385	387.49
1099.431	384.4
1104.472	379.4
1109.509	374.22
1114.54	368.31
1119.565	363.76
1124.586	361.76
1129.602	358.31
1134.613	356.03
1139.618	355.31
1144.619	355.03
1149.614	354.67
1154.604	354.4
1159.589	355.49
1164.57	356.12
1169.545	357.03
1174.515	358.22
1179.48	357.85
1184.44	358.22
1189.395	358.12
1194.345	357.85
1199.29	357.58
1204.23	358.4
1209.165	358.4
1214.095	358.12
1219.021	357.76
1223.941	357.94
1228.856	356.76
1233.766	353.58
1238.672	350.94
1243.572	346.67
1248.467	342.67
1253.358	336.76
1258.244	331.4
1263.124	326.4
1268	322.4
1272.871	318.12
1277.737	314.4
1282.599	312.67
1287.455	312.22
1292.306	311.85
1297.153	312.58
1301.995	313.58
1306.832	315.85
1311.664	316.22
1316.491	315.58
1321.314	315.12
1326.132	314.49
1330.945	313.22
1335.753	311.03
1340.556	308.4
1345.354	305.67
1350.148	302.85
1354.937	299.4
1359.722	296.49
1364.501	293.12
1369.276	291.4
1374.046	288.49
1378.811	285.49
1383.572	282.22
1388.327	278.03
1393.079	275.31
1397.825	271.85
1402.567	270.67
1407.304	268.76
1412.036	266.67
1416.764	267.4
1421.487	267.12
1426.205	267.76
1430.919	269.58
1435.628	270.85
1440.333	273.94
1445.032	275.58
1449.727	278.31
1454.418	277.67
1459.104	279.12
1463.785	280.4
1468.462	279.22
1473.134	279.49
1477.802	280.4
1482.465	279.03
1487.123	281.03
1491.777	280.49
1496.426	280.94
1501.071	281.31
1505.711	282.03
1510.347	281.22
1514.978	279.49
1519.604	278.67
1524.226	276.94
1528.844	275.4
1533.457	279.85
1538.065	282.31
1542.669	284.4
1547.269	281.67
1551.864	277.85
1556.454	274.22
1561.041	272.49
1565.622	271.49
1570.199	270.12
1574.772	267.85
1579.34	264.4
1583.904	256.31
1588.464	248.31
1593.019	241.03
1597.569	238.31
1602.115	236.76
1606.657	235.31
1611.195	232.76
1615.728	230.94
1620.256	228.94
1624.78	228.58
1629.3	227.85
1633.816	227.85
1638.327	228.03
1642.834	229.85
1647.336	231.03
1651.834	231.67
1656.328	232.49
1660.817	233.85
1665.302	234.67
1669.783	235.4
1674.259	234.85
1678.732	234.03
1683.199	233.4
1687.663	231.31
1692.122	227.76
1696.577	224.67
1701.028	221.49
1705.474	219.22
1709.917	215.85
1714.355	212.49
1718.788	208.22
1723.218	204.22
1727.643	200.58
1732.064	196.22
1736.481	191.94
1740.893	189.4
1745.301	186.58
1749.705	184.58
1754.105	180.76
1758.501	178.22
1762.893	175.49
1767.28	174.22
1771.663	173.58
1776.042	171.94
1780.417	170.58
1784.787	170.67
1789.154	169.12
1793.516	167.22
1797.874	164.85
1802.228	163.58
1806.578	160.76
1810.924	159.03
1815.266	156.03
1819.603	151.76
1823.937	150.67
1828.266	148.58
1832.591	144.94
1836.913	143.4
1841.23	142.31
1845.543	141.4
1849.852	140.67
1854.156	140.58
1858.457	140.03
1862.754	140.12
1867.047	141.58
1871.335	140.85
1875.62	139.94
1879.9	141.22
1884.177	140.76
1888.449	141.58
1892.718	142.12
1896.982	141.67
1901.243	141.76
1905.499	141.67
1909.752	142.03
1914	141.76
1918.245	141.03
1922.485	141.4
1926.722	140.12
1930.954	140.03
1935.183	139.31
1939.408	136.49
1943.628	134.67
1947.845	131.76
1952.058	129.67
1956.267	126.94
1960.472	123.49
1964.673	120.49
1968.87	117.4
1973.063	114.49
1977.252	111.31
1981.438	108.31
1985.619	106.58
1989.797	105.58
1993.971	104.85
1998.14	103.4
2002.306	103.12
2006.469	103.03
2010.627	102.67
2014.781	102.31
2018.932	101.58
2023.078	100.58
2027.221	99.12
2031.36	98.31
2035.495	97.4
2039.627	96.22
2043.754	95.76
2047.878	94.85
2051.998	94.76
2056.114	94.85
2060.226	94.94
2064.334	96.12
2068.439	96.22
2072.54	96.67
2076.637	97.31
2080.73	96.94
2084.82	97.31
2088.906	95.58
2092.988	94.22
2097.066	92.22
2101.14	90.58
2105.211	89.22
2109.278	87.31
2113.342	85.85
2117.401	84.22
2121.457	82.76
2125.509	81.31
2129.558	78.67
2133.602	77.22
2137.643	76.67
2141.681	75.67
2145.714	74.49
2149.744	72.94
2153.77	71.12
2157.793	69.67
2161.812	67.67
2165.827	65.58
2169.838	64.31
2173.846	63.76
2177.851	63.03
2181.851	61.12
2185.848	60.13
2189.841	58.76
2193.831	58.03
2197.817	57.49
2201.799	56.76
2205.778	56.58
2209.753	56.22
2213.725	56.12
2217.693	55.67
2221.657	55.85
2225.618	54.94
2229.575	53.49
2233.529	53.58
2237.479	53.67
2241.425	52.85
2245.368	52.49
2249.307	52.31
2253.243	50.67
2257.175	48.94
2261.104	47.94
2265.029	46.67
2268.95	45.85
2272.868	46.4
2276.783	45.85
2280.694	44.31
2284.601	43.58
2288.505	42.94
2292.405	41.94
2296.302	42.4
2300.195	42.94
2304.085	43.76
2307.971	46.94
2311.854	56.85
2315.734	67.49
2319.609	73.22
2323.482	73.31
2327.351	72.67
2331.216	72.31
2335.078	71.58
2338.937	70.58
2342.792	68.76
2346.643	66.22
2350.492	61.76
2354.336	50.58
2358.178	37.76
2362.015	30.58
2365.85	29.4
2369.681	28.58
2373.508	27.67
2377.333	26.94
2381.153	25.85
2384.971	26.22
2388.785	26.13
2392.595	24.49
2396.402	24.13
2400.206	23.13
2404.007	22.13
2407.804	20.49
2411.597	20.4
2415.388	19.58
2419.174	18.94
2422.958	18.67
2426.738	17.31
2430.515	16.31
2434.289	16.76
2438.059	16.31
2441.825	16.58
2445.589	15.85
2449.349	16.49
2453.106	15.94
2456.859	15.76
2460.61	15.31
2464.356	14.76
2468.1	14.4
2471.84	13.67
2475.577	12.94
2479.311	12.12
2483.041	12.31
2486.768	12.22
2490.492	11.12
2494.213	10.49
2497.93	10.49
2501.644	10.22
2505.355	9.94
2509.062	9.76
2512.766	9.58
2516.467	9.58
2520.165	8.85
2523.859	7.94
2527.551	7.31
2531.239	7.67
2534.923	7.22
2538.605	5.76
2542.283	5.03
2545.958	4.31
2549.63	3.4
2553.299	3.58
2556.964	2.85
2560.626	3.58
2564.285	2.85
2567.941	2.22
2571.594	1.31
2575.243	0.94
2578.89	0.31
2582.533	-0.06
2586.173	0.49
2589.809	0.49
2593.443	-0.15
2597.073	-0.24
2600.701	-0.97
2604.325	-1.42
2607.946	-1.15
2611.564	-1.6
2615.178	-2.33
2618.79	-2.69
2622.398	-3.15
2626.004	-4.69
2629.606	-5.69
2633.205	-6.51
2636.801	-7.88
2640.394	-9.33
2643.983	-10.6
2647.57	-12.78
2651.153	-13.51
2654.734	-13.97
2658.311	-14.69
2661.885	-15.87
2665.456	-16.06
2669.025	-16.15
2672.589	-16.69
2676.151	-17.24
2679.71	-17.24
2683.266	-17.15
2686.819	-16.15
2690.368	-16.24
2693.915	-16.33
2697.458	-15.69
2700.999	-15.69
2704.536	-15.33
2708.071	-15.88
2711.602	-15.87
2715.13	-14.97
2718.656	-14.97
2722.178	-14.51
2725.697	-14.15
2729.214	-13.88
2732.727	-14.33
2736.237	-14.6
2739.744	-14.15
2743.249	-14.24
2746.75	-14.6
2750.248	-14.88
2753.743	-16.51
2757.236	-17.51
2760.725	-18.69
2764.211	-20.15
2767.695	-21.06
2771.175	-21.97
2774.652	-23.15
2778.127	-24.24
2781.598	-25.51
2785.067	-26.24
2788.532	-26.78
2791.995	-26.15
2795.455	-26.6
2798.911	-26.69
2802.365	-26.33
2805.816	-26.97
2809.264	-26.88
2812.709	-27.06
2816.151	-27.24
2819.59	-27.24
2823.026	-26.51
2826.46	-26.69
2829.89	-26.24
2833.318	-25.78
2836.742	-25.42
2840.164	-26.15
2843.583	-25.88
2846.999	-25.15
2850.412	-24.69
2853.822	-24.06
2857.229	-23.78
2860.634	-23.78
2864.035	-23.97
2867.434	-25.51
2870.83	-25.88
2874.223	-27.15
2877.613	-27.6
2881	-28.42
2884.385	-30.15
2887.766	-31.97
2891.145	-34.15
2894.521	-36.24
2897.894	-37.42
2901.264	-37.97
2904.631	-38.78
2907.996	-39.24
2911.358	-39.06
2914.717	-40.15
2918.073	-40.51
2921.426	-40.97
2924.777	-40.42
2928.124	-39.88
2931.469	-38.97
2934.811	-39.33
2938.15	-39.51
2941.487	-39.97
2944.821	-40.33
2948.152	-40.42
2951.48	-39.78
2954.805	-39.6
2958.128	-39.42
2961.447	-39.42
2964.765	-38.88
2968.079	-39.6
2971.39	-39.24
2974.699	-39.33
2978.005	-38.6
2981.308	-38.33
2984.609	-38.88
2987.907	-39.15
2991.202	-39.6
2994.494	-40.15
2997.784	-40.6
3001.07	-41.24
3004.355	-41.69
3007.636	-43.42
3010.915	-44.24
3014.191	-45.15
3017.464	-46.24
3020.734	-47.6
3024.002	-48.42
3027.267	-49.42
3030.53	-49.51
3033.789	-50.51
3037.046	-50.78
3040.301	-50.06
3043.552	-49.78
3046.801	-50.06
3050.048	-49.88
3053.291	-50.06
3056.532	-49.06
3059.771	-48.6
3063.006	-47.97
3066.239	-48.33
3069.469	-47.33
3072.697	-48.24
3075.922	-48.69
3079.144	-48.69
3082.364	-48.6
3085.581	-49.06
3088.795	-48.97
3092.007	-49.97
3095.216	-50.51
3098.423	-51.33
3101.627	-50.6
3104.828	-51.42
3108.026	-50.88
3111.222	-51.78
3114.416	-51.97
3117.607	-52.69
3120.795	-53.33
3123.98	-53.97
3127.163	-53.24
3130.344	-53.6
3133.521	-53.06
3136.696	-54.06
3139.869	-54.33
3143.039	-55.78
3146.206	-55.24
3149.371	-55.69
3152.533	-55.06
3155.693	-54.97
3158.85	-54.06
3162.005	-55.24
3165.157	-55.78
3168.306	-57.06
3171.453	-57.24
3174.597	-57.51
3177.739	-57.06
3180.878	-57.78
3184.014	-57.51
3187.149	-57.6
3190.28	-57.24
3193.409	-58.15
3196.536	-57.15
3199.659	-56.33
3202.781	-55.78
3205.9	-55.88
3209.016	-55.88
3212.13	-55.42
3215.241	-55.6
3218.35	-56.24
3221.456	-56.51
3224.56	-56.51
3227.661	-56.88
3230.76	-57.51
3233.856	-58.24
3236.95	-58.69
3240.041	-59.78
3243.13	-59.97
3246.216	-60.51
3249.3	-60.97
3252.382	-60.78
3255.46	-62.15
3258.537	-62.97
3261.611	-63.15
3264.682	-63.33
3267.751	-62.78
3270.818	-63.33
3273.882	-63.24
3276.943	-63.51
3280.002	-63.42
3283.059	-63.51
3286.113	-64.06
3289.165	-63.06
3292.214	-62.69
3295.261	-62.69
3298.306	-63.06
3301.348	-63.15
3304.387	-62.42
3307.425	-61.6
3310.459	-61.69
3313.492	-61.88
3316.521	-61.6
3319.549	-61.06
3322.574	-60.88
3325.597	-61.06
3328.617	-61.24
3331.635	-61.06
3334.65	-61.24
3337.663	-61.78
3340.674	-61.69
3343.682	-62.42
3346.688	-62.88
3349.691	-63.06
3352.692	-63.15
3355.691	-63.42
3358.687	-64.15
3361.681	-64.88
3364.673	-64.97
3367.662	-65.06
3370.649	-65.6
3373.633	-66.42
3376.615	-66.15
3379.595	-65.88
3382.572	-65.69
3385.547	-66.15
3388.52	-66.97
3391.49	-66.33
3394.458	-65.33
3397.424	-65.69
3400.387	-67.15
3403.348	-66.88
3406.307	-66.69
3409.263	-66.69
3412.217	-66.78
3415.168	-67.42
3418.118	-67.33
3421.065	-66.88
3424.009	-66.78
3426.951	-66.42
3429.891	-65.88
3432.829	-64.88
3435.764	-64.97
3438.697	-64.88
3441.628	-64.15
3444.557	-63.6
3447.483	-63.06
3450.407	-62.15
3453.328	-62.24
3456.247	-62.15
3459.164	-62.69
3462.079	-63.15
3464.991	-62.78
3467.902	-62.51
3470.809	-62.51
3473.715	-63.15
3476.618	-64.42
3479.519	-64.78
3482.418	-65.78
3485.315	-65.69
3488.209	-66.6
3491.101	-66.69
3493.99	-66.33
3496.878	-66.97
3499.763	-67.69
3502.646	-68.15
3505.527	-68.15
3508.405	-68.15
3511.281	-68.6
3514.155	-68.97
3517.027	-68.97
3519.897	-68.6
3522.764	-68.97
3525.629	-69.88
3528.492	-70.06
3531.352	-69.15
3534.211	-69.06
3537.067	-69.06
3539.921	-68.88
3542.773	-68.88
3545.622	-68.88
3548.469	-68.88
3551.315	-69.15
3554.157	-68.78
3556.998	-68.78
3559.837	-67.97
3562.673	-67.78
3565.507	-67.51
3568.339	-67.24
3571.169	-67.51
3573.996	-67.6
3576.822	-67.15
3579.645	-67.51
3582.466	-67.15
3585.285	-67.69
3588.101	-67.78
3590.916	-69.15
3593.728	-69.33
3596.538	-69.78
3599.346	-70.33
3602.152	-69.78
3604.956	-69.88
3607.757	-70.42
3610.556	-70.69
3613.354	-70.78
3616.149	-70.78
3618.942	-70.69
3621.732	-70.15
3624.521	-70.6
3627.307	-71.06
3630.092	-71.33
3632.874	-71.78
3635.654	-71.24
3638.432	-71.06
3641.208	-71.06
3643.982	-71.69
3646.753	-71.42
3649.523	-71.15
3652.29	-71.51
3655.055	-71.88
3657.818	-70.97
3660.579	-70.6
3663.338	-70.51
3666.095	-70.69
3668.849	-70.97
3671.602	-70.78
3674.352	-70.42
3677.101	-70.69
3679.847	-70.69
3682.591	-70.42
3685.333	-69.51
3688.073	-70.15
3690.811	-70.06
3693.547	-69.78
3696.281	-69.69
3699.013	-69.97
3701.742	-70.06
3704.47	-70.6
3707.195	-70.78
3709.919	-71.06
3712.64	-71.24
3715.359	-71.69
3718.076	-72.51
3720.792	-73.24
3723.505	-73.97
3726.216	-74.24
3728.925	-74.33
3731.632	-74.97
3734.336	-74.6
3737.039	-74.42
3739.74	-74.42
3742.439	-74.33
3745.136	-75.06
3747.83	-74.51
3750.523	-73.97
3753.213	-73.06
3755.902	-73.42
3758.589	-72.88
3761.273	-72.33
3763.956	-72.6
3766.636	-72.78
3769.315	-72.78
3771.991	-73.97
3774.665	-75.42
3777.338	-74.78
3780.008	-75.06
3782.677	-75.78
3785.343	-75.15
3788.007	-74.97
3790.67	-74.88
3793.33	-74.51
3795.989	-74.33
3798.645	-74.51
3801.299	-73.6
3803.952	-71.97
3806.602	-72.24
3809.251	-72.24
3811.897	-72.06
3814.542	-72.88
3817.184	-72.97
3819.825	-73.6
3822.463	-73.78
3825.1	-74.42
3827.735	-74.15
3830.367	-73.69
3832.998	-73.42
3835.627	-73.42
3838.253	-72.88
3840.878	-72.97
3843.501	-72.24
3846.122	-72.6
3848.741	-71.69
3851.358	-71.78
3853.973	-69.88
3856.586	-69.15
3859.197	-67.6
3861.806	-64.06
3864.414	-57.51
3867.019	-47.24
3869.622	-31.51
3872.224	-14.15
3874.823	-0.42
3877.421	7.49
3880.016	11.4
3882.61	12.03
3885.202	12.22
3887.792	11.31
3890.38	7.85
3892.966	1.58
3895.55	-8.51
3898.132	-23.97
3900.713	-41.6
3903.291	-55.33
3905.868	-63.69
3908.442	-67.42
3911.015	-69.33
3913.586	-70.6
3916.155	-71.42
3918.722	-70.97
3921.287	-71.24
3923.85	-71.97
3926.411	-71.97
3928.971	-72.15
3931.528	-72.06
3934.084	-72.15
3936.638	-72.42
3939.19	-72.69
3941.74	-72.51
3944.288	-72.24
3946.834	-71.33
3949.378	-70.78
3951.921	-70.51
3954.462	-70.42
3957	-69.69
3959.537	-69.78
3962.072	-69.42
3964.606	-69.33
3967.137	-69.15
3969.667	-68.78
3972.194	-69.42
3974.72	-70.69
3977.244	-71.15
3979.766	-70.88
3982.286	-71.06
3984.805	-71.78
3987.321	-71.88
3989.836	-72.06
3992.349	-71.88
3994.86	-71.78
3997.369	-72.06
3999.877	-71.42
4002.382	-71.97
4004.886	-72.06
4007.388	-72.33
4009.888	-72.69
4012.386	-72.6
4014.883	-72.69
4017.377	-72.51
4019.87	-72.97
4022.361	-73.15
4024.85	-73.06
4027.338	-73.51
4029.823	-73.42
4032.307	-73.33
4034.789	-73.78
4037.269	-72.88
4039.747	-72.15
4042.224	-71.42
4044.699	-71.97
4047.172	-71.15
4049.643	-70.88
4052.112	-70.24
4054.58	-70.15
4057.046	-69.78
4059.51	-69.78
4061.972	-69.78
4064.432	-70.78
4066.891	-71.06
4069.348	-71.97
4071.803	-71.42
4074.256	-72.24
4076.708	-72.24
4079.158	-73.24
4081.606	-73.24
4084.052	-73.69
4086.497	-73.42
4088.939	-73.24
4091.38	-72.88
4093.819	-59.51
4096.257	-46.06
4098.693	-33.88
4101.127	-21.24
4103.559	-10.06
4105.989	0.94
4108.418	1.22
4110.845	1.31
4113.27	0.76
4115.694	0.67
4118.115	1.03
4120.535	-12.15
4122.954	-25.33
4125.37	-37.69
4127.785	-50.15
4130.198	-61.6
4132.609	-72.48
4135.019	-72.76
4137.427	-72.5
4139.833	-72.3
4142.237	-71.88