File: Data/Raman/2017-08-24 - Glass, alluminum 108/Aluminum II [full set]/Alu-BS-108 30s,I=1, BC=3, 1sta _RamanShift_1.txt
Data from Alu-BS-108 30s,I=1, BC=3, 1sta _RamanShift_1.txt Node

Date: Thu Aug 24 13:51:51 IDT 2017
User: aro
Spectrometer: QEPB0276
Trigger mode: 0
Integration Time (sec): 3.000000E1
Scans to average: 1
Electric dark correction enabled: true
Nonlinearity correction enabled: false
Boxcar width: 5
XAxis mode: Raman Shifts
Number of Pixels in Spectrum: 1044
>>>>>Begin Spectral Data<<<<<
160.701	184.58
166.742	299.54
172.777	421.38
178.805	527.25
184.826	616.65
190.841	692.43
196.849	823.8
202.85	959.43
208.845	1096.34
214.833	1228.98
220.815	1347.07
226.789	1438.89
232.758	1497.7
238.719	1533.16
244.674	1561.7
250.623	1589.61
256.565	1616.8
262.5	1646.61
268.429	1673.43
274.351	1697.7
280.267	1722.7
286.176	1747.07
292.079	1771.07
297.975	1794.8
303.865	1817.16
309.748	1837.7
315.625	1856.98
321.495	1873.52
327.359	1889.16
333.217	1904.07
339.068	1920.8
344.912	1942.34
350.751	1970.34
356.583	2003.8
362.408	2030.8
368.227	2051.16
374.04	2070.07
379.847	2099.7
385.647	2160.61
391.44	2253.8
397.228	2346.8
403.009	2402.25
408.784	2417.8
414.553	2416.16
420.315	2400.89
426.071	2388.98
431.821	2379.25
437.565	2365.25
443.302	2337.16
449.033	2276.8
454.758	2179.52
460.477	2079.16
466.189	2013.25
471.896	1971.34
477.596	1929.25
483.29	1879.98
488.978	1821.52
494.66	1757.34
500.335	1691.34
506.005	1622.16
511.668	1550.25
517.325	1477.7
522.977	1404.61
528.622	1331.16
534.261	1264.07
539.894	1206.7
545.521	1162.07
551.141	1129.43
556.756	1104.8
562.365	1085.8
567.968	1070.52
573.565	1059.43
579.155	1051.07
584.74	1044.34
590.319	1036.98
595.892	1029.8
601.459	1021.7
607.02	1017.89
612.575	1019.43
618.124	1032.43
623.667	1050.34
629.204	1060.25
634.735	1058.52
640.261	1048.34
645.781	1036.89
651.294	1025.61
656.802	1015.8
662.304	1007.07
667.8	993.07
673.29	972.07
678.775	940.07
684.254	905.16
689.726	878.34
695.193	863.25
700.655	855.7
706.11	850.43
711.56	848.16
717.004	846.98
722.442	850.98
727.874	857.61
733.301	863.34
738.722	866.98
744.137	869.52
749.547	874.61
754.951	881.16
760.349	888.52
765.741	898.07
771.128	904.61
776.509	910.52
781.885	910.98
787.254	907.98
792.618	906.07
797.977	906.52
803.33	906.7
808.677	902.98
814.019	896.25
819.355	888.43
824.686	876.07
830.011	864.98
835.33	851.98
840.644	836.7
845.952	824.25
851.255	810.43
856.552	795.8
861.844	781.61
867.13	768.52
872.41	756.98
877.686	745.34
882.955	734.43
888.219	724.43
893.478	715.61
898.731	709.52
903.979	704.61
909.221	699.43
914.458	697.34
919.69	695.25
924.916	693.25
930.136	690.89
935.351	689.43
940.561	688.7
945.766	686.07
950.965	682.98
956.158	679.16
961.347	673.98
966.529	670.52
971.707	665.16
976.879	661.34
982.046	656.52
987.208	654.98
992.364	653.07
997.515	652.07
1002.66	653.34
1007.801	655.25
1012.936	658.7
1018.066	662.25
1023.19	663.8
1028.309	666.16
1033.423	667.61
1038.532	670.8
1043.636	670.8
1048.734	670.8
1053.827	671.16
1058.915	669.89
1063.998	668.34
1069.075	665.34
1074.147	660.8
1079.214	660.43
1084.276	656.25
1089.333	651.52
1094.385	645.98
1099.431	641.98
1104.472	636.52
1109.509	629.16
1114.54	621.7
1119.565	616.16
1124.586	610.89
1129.602	608.07
1134.613	602.34
1139.618	601.8
1144.619	600.8
1149.614	601.25
1154.604	599.34
1159.589	598.16
1164.57	599.25
1169.545	599.61
1174.515	598.34
1179.48	597.61
1184.44	596.8
1189.395	596.7
1194.345	593.98
1199.29	591.7
1204.23	590.25
1209.165	589.25
1214.095	590.52
1219.021	589.16
1223.941	588.43
1228.856	587.43
1233.766	584.7
1238.672	580.43
1243.572	575.7
1248.467	569.98
1253.358	563.89
1258.244	555.7
1263.124	548.8
1268	541.98
1272.871	537.34
1277.737	532.98
1282.599	529.25
1287.455	527.89
1292.306	526.25
1297.153	526.34
1301.995	526.61
1306.832	527.7
1311.664	528.89
1316.491	529.43
1321.314	527.7
1326.132	524.98
1330.945	522.25
1335.753	518.89
1340.556	513.89
1345.354	509.8
1350.148	503.16
1354.937	498.07
1359.722	491.52
1364.501	486.34
1369.276	480.52
1374.046	475.16
1378.811	470.16
1383.572	464.16
1388.327	459.16
1393.079	453.8
1397.825	449.7
1402.567	447.43
1407.304	444.16
1412.036	442.89
1416.764	440.61
1421.487	440.25
1426.205	440.89
1430.919	441.61
1435.628	443.61
1440.333	446.8
1445.032	449.16
1449.727	450.52
1454.418	451.34
1459.104	453.34
1463.785	454.43
1468.462	454.25
1473.134	454.52
1477.802	454.25
1482.465	454.25
1487.123	454.61
1491.777	452.89
1496.426	453.16
1501.071	452.25
1505.711	450.61
1510.347	448.25
1514.978	445.25
1519.604	442.98
1524.226	439.25
1528.844	436.7
1533.457	437.52
1538.065	439.07
1542.669	438.7
1547.269	433.61
1551.864	428.34
1556.454	424.52
1561.041	420.43
1565.622	417.7
1570.199	414.52
1574.772	411.43
1579.34	406.98
1583.904	398.34
1588.464	388.7
1593.019	381.16
1597.569	377.8
1602.115	375.52
1606.657	372.52
1611.195	369.34
1615.728	367.07
1620.256	365.8
1624.78	364.89
1629.3	364.61
1633.816	364.89
1638.327	365.34
1642.834	366.43
1647.336	367.61
1651.834	369.25
1656.328	370.98
1660.817	372.8
1665.302	373.52
1669.783	372.98
1674.259	372.89
1678.732	371.43
1683.199	369.34
1687.663	366.16
1692.122	362.16
1696.577	359.07
1701.028	355.07
1705.474	349.98
1709.917	345.43
1714.355	339.7
1718.788	334.07
1723.218	328.52
1727.643	323.07
1732.064	317.43
1736.481	312.8
1740.893	307.98
1745.301	302.89
1749.705	298.98
1754.105	295.52
1758.501	293.98
1762.893	291.89
1767.28	291.8
1771.663	291.34
1776.042	290.16
1780.417	289.89
1784.787	288.8
1789.154	288.07
1793.516	286.98
1797.874	283.98
1802.228	281.89
1806.578	277.61
1810.924	273.98
1815.266	269.43
1819.603	263.89
1823.937	260.07
1828.266	256.61
1832.591	253.16
1836.913	250.25
1841.23	248.07
1845.543	247.16
1849.852	245.89
1854.156	244.7
1858.457	245.16
1862.754	245.07
1867.047	245.8
1871.335	245.8
1875.62	245.61
1879.9	247.43
1884.177	248.89
1888.449	248.43
1892.718	249.52
1896.982	249.8
1901.243	251.25
1905.499	251.25
1909.752	252.43
1914	253.25
1918.245	253.7
1922.485	254.34
1926.722	252.8
1930.954	251.7
1935.183	251.8
1939.408	249.89
1943.628	247.25
1947.845	243.61
1952.058	240.07
1956.267	235.52
1960.472	230.34
1964.673	226.52
1968.87	221.89
1973.063	218.07
1977.252	213.89
1981.438	209.07
1985.619	205.43
1989.797	203.07
1993.971	200.52
1998.14	197.98
2002.306	195.98
2006.469	194.07
2010.627	191.52
2014.781	189.61
2018.932	187.25
2023.078	184.8
2027.221	182.25
2031.36	179.52
2035.495	178.07
2039.627	176.16
2043.754	175.25
2047.878	174.25
2051.998	174.34
2056.114	173.98
2060.226	173.98
2064.334	175.07
2068.439	175.7
2072.54	176.8
2076.637	178.34
2080.73	177.98
2084.82	178.7
2088.906	177.98
2092.988	177.8
2097.066	176.61
2101.14	175.7
2105.211	174.16
2109.278	171.8
2113.342	170.43
2117.401	169.34
2121.457	167.16
2125.509	165.61
2129.558	162.52
2133.602	160.52
2137.643	158.34
2141.681	155.89
2145.714	153.89
2149.744	152.16
2153.77	149.25
2157.793	146.43
2161.812	143.43
2165.827	140.7
2169.838	138.34
2173.846	136.25
2177.851	133.7
2181.851	131.43
2185.848	129.52
2189.841	127.61
2193.831	125.61
2197.817	125.07
2201.799	123.8
2205.778	123.61
2209.753	122.52
2213.725	121.07
2217.693	120.8
2221.657	121.25
2225.618	120.52
2229.575	119.25
2233.529	118.8
2237.479	117.98
2241.425	117.07
2245.368	116.16
2249.307	114.8
2253.243	113.25
2257.175	112.7
2261.104	111.43
2265.029	109.52
2268.95	108.25
2272.868	108.25
2276.783	106.98
2280.694	105.25
2284.601	103.34
2288.505	102.43
2292.405	100.52
2296.302	99.98
2300.195	99.16
2304.085	99.07
2307.971	101.61
2311.854	109.7
2315.734	119.7
2319.609	123.89
2323.482	124.07
2327.351	123.8
2331.216	122.52
2335.078	121.52
2338.937	120.16
2342.792	118.07
2346.643	114.8
2350.492	110.34
2354.336	100.07
2358.178	87.43
2362.015	81.89
2365.85	79.8
2369.681	78.89
2373.508	78.16
2377.333	77.16
2381.153	76.7
2384.971	76.52
2388.785	76.34
2392.595	74.89
2396.402	74.43
2400.206	73.52
2404.007	71.98
2407.804	71.07
2411.597	70.61
2415.388	69.8
2419.174	69.89
2422.958	69.25
2426.738	68.52
2430.515	68.61
2434.289	68.7
2438.059	67.8
2441.825	66.98
2445.589	66.34
2449.349	66.34
2453.106	65.7
2456.859	65.61
2460.61	64.7
2464.356	64.07
2468.1	63.34
2471.84	62.43
2475.577	62.07
2479.311	61.43
2483.041	61.07
2486.768	60.25
2490.492	59.52
2494.213	58.8
2497.93	59.43
2501.644	59.25
2505.355	59.07
2509.062	58.52
2512.766	57.61
2516.467	56.52
2520.165	55.52
2523.859	55.34
2527.551	54.8
2531.239	54.34
2534.923	53.25
2538.605	51.43
2542.283	50.61
2545.958	49.61
2549.63	49.07
2553.299	49.52
2556.964	49.61
2560.626	49.7
2564.285	49.25
2567.941	48.52
2571.594	47.61
2575.243	47.16
2578.89	46.61
2582.533	46.07
2586.173	45.52
2589.809	45.43
2593.443	44.07
2597.073	43.34
2600.701	43.07
2604.325	41.61
2607.946	41.61
2611.564	41.07
2615.178	40.61
2618.79	39.07
2622.398	38.16
2626.004	37.07
2629.606	35.8
2633.205	34.89
2636.801	33.43
2640.394	31.61
2643.983	30.43
2647.57	29.34
2651.153	28.16
2654.734	26.61
2658.311	26.7
2661.885	25.8
2665.456	24.52
2669.025	24.07
2672.589	23.25
2676.151	22.52
2679.71	22.52
2683.266	22.34
2686.819	21.43
2690.368	20.98
2693.915	20.7
2697.458	19.8
2700.999	18.98
2704.536	19.25
2708.071	17.8
2711.602	18.34
2715.13	18.34
2718.656	17.8
2722.178	17.98
2725.697	17.89
2729.214	18.89
2732.727	18.8
2736.237	18.7
2739.744	19.61
2743.249	19.7
2746.75	20.34
2750.248	19.34
2753.743	18.34
2757.236	17.43
2760.725	16.43
2764.211	15.89
2767.695	14.07
2771.175	13.7
2774.652	12.7
2778.127	10.8
2781.598	9.89
2785.067	8.25
2788.532	7.61
2791.995	7.8
2795.455	7.25
2798.911	7.16
2802.365	6.52
2805.816	6.34
2809.264	5.98
2812.709	5.7
2816.151	4.98
2819.59	4.98
2823.026	5.89
2826.46	5.89
2829.89	5.7
2833.318	5.52
2836.742	5.16
2840.164	4.8
2843.583	4.43
2846.999	4.98
2850.412	4.8
2853.822	6.07
2857.229	5.98
2860.634	5.43
2864.035	5.07
2867.434	3.7
2870.83	3.8
2874.223	3.43
2877.613	2.7
2881	2.34
2884.385	0.89
2887.766	-0.11
2891.145	-2.2
2894.521	-3.75
2897.894	-5.2
2901.264	-6.57
2904.631	-7.11
2907.996	-8.39
2911.358	-9.39
2914.717	-10.02
2918.073	-10.93
2921.426	-12.11
2924.777	-11.93
2928.124	-11.57
2931.469	-11.93
2934.811	-12.39
2938.15	-12.02
2941.487	-12.02
2944.821	-11.75
2948.152	-11.39
2951.48	-11.02
2954.805	-11.57
2958.128	-11.2
2961.447	-11.39
2964.765	-11.3
2968.079	-11.02
2971.39	-10.02
2974.699	-10.2
2978.005	-10.3
2981.308	-10.48
2984.609	-11.48
2987.907	-11.93
2991.202	-11.84
2994.494	-12.3
2997.784	-13.02
3001.07	-13.75
3004.355	-14.39
3007.636	-16.02
3010.915	-17.39
3014.191	-18.2
3017.464	-18.75
3020.734	-19.57
3024.002	-20.2
3027.267	-21.39
3030.53	-22.02
3033.789	-23.2
3037.046	-23.93
3040.301	-24.11
3043.552	-24.39
3046.801	-24.39
3050.048	-24.39
3053.291	-25.48
3056.532	-25.2
3059.771	-25.11
3063.006	-24.11
3066.239	-23.93
3069.469	-23.2
3072.697	-23.75
3075.922	-23.57
3079.144	-23.11
3082.364	-23.11
3085.581	-23.2
3088.795	-22.75
3092.007	-23.11
3095.216	-23.2
3098.423	-23.84
3101.627	-24.3
3104.828	-24.84
3108.026	-24.11
3111.222	-25.3
3114.416	-25.66
3117.607	-25.93
3120.795	-26.57
3123.98	-27.39
3127.163	-27.3
3130.344	-27.84
3133.521	-27.93
3136.696	-28.3
3139.869	-28.48
3143.039	-30.02
3146.206	-29.75
3149.371	-30.57
3152.533	-31.3
3155.693	-31.57
3158.85	-30.84
3162.005	-32.02
3165.157	-32.39
3168.306	-33.11
3171.453	-33.02
3174.597	-33.2
3177.739	-32.75
3180.878	-33.57
3184.014	-33.11
3187.149	-32.02
3190.28	-31.93
3193.409	-32.93
3196.536	-31.66
3199.659	-31.2
3202.781	-31.3
3205.9	-31.57
3209.016	-32.2
3212.13	-31.93
3215.241	-31.75
3218.35	-32.39
3221.456	-33.11
3224.56	-33.2
3227.661	-33.11
3230.76	-33.75
3233.856	-34.66
3236.95	-34.75
3240.041	-35.57
3243.13	-35.39
3246.216	-36.3
3249.3	-36.75
3252.382	-36.66
3255.46	-36.93
3258.537	-37.57
3261.611	-37.84
3264.682	-38.02
3267.751	-37.48
3270.818	-37.39
3273.882	-37.57
3276.943	-37.66
3280.002	-37.2
3283.059	-36.84
3286.113	-36.39
3289.165	-36.39
3292.214	-35.66
3295.261	-35.48
3298.306	-35.75
3301.348	-35.84
3304.387	-36.11
3307.425	-35.57
3310.459	-35.66
3313.492	-35.93
3316.521	-36.48
3319.549	-36.66
3322.574	-36.93
3325.597	-37.66
3328.617	-38.39
3331.635	-38.75
3334.65	-39.39
3337.663	-39.3
3340.674	-39.48
3343.682	-40.48
3346.688	-40.39
3349.691	-40.66
3352.692	-41.48
3355.691	-41.84
3358.687	-42.2
3361.681	-42.84
3364.673	-42.93
3367.662	-43.39
3370.649	-44.39
3373.633	-44.48
3376.615	-44.3
3379.595	-44.75
3382.572	-43.84
3385.547	-43.84
3388.52	-43.66
3391.49	-43.39
3394.458	-42.48
3397.424	-42.84
3400.387	-42.93
3403.348	-42.75
3406.307	-42.75
3409.263	-42.39
3412.217	-41.93
3415.168	-42.66
3418.118	-42.3
3421.065	-42.2
3424.009	-41.93
3426.951	-41.75
3429.891	-41.2
3432.829	-41.2
3435.764	-41.02
3438.697	-41.02
3441.628	-40.84
3444.557	-41.02
3447.483	-40.75
3450.407	-41.11
3453.328	-42.11
3456.247	-42.48
3459.164	-42.3
3462.079	-42.2
3464.991	-41.66
3467.902	-41.93
3470.809	-42.3
3473.715	-43.11
3476.618	-43.93
3479.519	-44.93
3482.418	-45.2
3485.315	-44.66
3488.209	-45.2
3491.101	-46.11
3493.99	-46.39
3496.878	-46.02
3499.763	-45.57
3502.646	-46.11
3505.527	-46.11
3508.405	-46.11
3511.281	-45.93
3514.155	-46.3
3517.027	-46.02
3519.897	-45.57
3522.764	-45.2
3525.629	-45.66
3528.492	-46.02
3531.352	-46.11
3534.211	-45.2
3537.067	-45.02
3539.921	-45.11
3542.773	-45.02
3545.622	-44.57
3548.469	-44.39
3551.315	-44.3
3554.157	-44.39
3556.998	-44.2
3559.837	-43.93
3562.673	-43.93
3565.507	-44.3
3568.339	-44.11
3571.169	-44.2
3573.996	-44.02
3576.822	-44.11
3579.645	-44.57
3582.466	-44.48
3585.285	-44.75
3588.101	-44.48
3590.916	-45.84
3593.728	-45.39
3596.538	-45.66
3599.346	-45.75
3602.152	-45.11
3604.956	-45.66
3607.757	-45.75
3610.556	-45.75
3613.354	-46.2
3616.149	-46.3
3618.942	-46.75
3621.732	-46.11
3624.521	-47.2
3627.307	-47.39
3630.092	-47.39
3632.874	-47.75
3635.654	-47.48
3638.432	-47.11
3641.208	-47.66
3643.982	-47.75
3646.753	-47.2
3649.523	-46.84
3652.29	-46.75
3655.055	-46.57
3657.818	-46.2
3660.579	-46.02
3663.338	-46.3
3666.095	-46.2
3668.849	-46.57
3671.602	-46.02
3674.352	-45.93
3677.101	-46.39
3679.847	-46.11
3682.591	-46.3
3685.333	-45.84
3688.073	-46.2
3690.811	-46.57
3693.547	-45.93
3696.281	-45.84
3699.013	-46.75
3701.742	-46.57
3704.47	-47.11
3707.195	-47.93
3709.919	-49.02
3712.64	-49.02
3715.359	-48.93
3718.076	-49.57
3720.792	-49.93
3723.505	-50.39
3726.216	-50.66
3728.925	-50.11
3731.632	-50.75
3734.336	-50.2
3737.039	-49.48
3739.74	-48.2
3742.439	-48.02
3745.136	-48.2
3747.83	-47.57
3750.523	-46.93
3753.213	-46.3
3755.902	-46.3
3758.589	-45.48
3761.273	-45.11
3763.956	-45.39
3766.636	-45.39
3769.315	-45.75
3771.991	-47.11
3774.665	-49.57
3777.338	-49.48
3780.008	-49.57
3782.677	-50.2
3785.343	-49.93
3788.007	-50.2
3790.67	-50.75
3793.33	-50.3
3795.989	-50.02
3798.645	-50.2
3801.299	-48.57
3803.952	-46.39
3806.602	-46.39
3809.251	-46.84
3811.897	-46.84
3814.542	-47.3
3817.184	-47.39
3819.825	-47.48
3822.463	-47.66
3825.1	-48.57
3827.735	-49.11
3830.367	-50.11
3832.998	-49.93
3835.627	-49.84
3838.253	-49.3
3840.878	-49.57
3843.501	-49.3
3846.122	-49.48
3848.741	-49.2
3851.358	-49.57
3853.973	-48.2
3856.586	-47.2
3859.197	-46.02
3861.806	-44.66
3864.414	-42.3
3867.019	-37.48
3869.622	-30.57
3872.224	-23.66
3874.823	-18.11
3877.421	-14.11
3880.016	-12.11
3882.61	-11.57
3885.202	-11.66
3887.792	-12.2
3890.38	-13.57
3892.966	-16.2
3895.55	-21.11
3898.132	-27.48
3900.713	-34.3
3903.291	-40.3
3905.868	-44.48
3908.442	-46.75
3911.015	-47.75
3913.586	-48.66
3916.155	-49.2
3918.722	-49.39
3921.287	-49.57
3923.85	-50.48
3926.411	-50.84
3928.971	-51.48
3931.528	-51.2
3934.084	-51.2
3936.638	-50.84
3939.19	-51.39
3941.74	-51.48
3944.288	-51.2
3946.834	-50.57
3949.378	-50.2
3951.921	-48.93
3954.462	-48.11
3957	-47.39
3959.537	-47.11
3962.072	-46.11
3964.606	-46.3
3967.137	-45.57
3969.667	-44.66
3972.194	-44.2
3974.72	-44.2
3977.244	-44.02
3979.766	-44.11
3982.286	-45.11
3984.805	-45.3
3987.321	-45.3
3989.836	-46.11
3992.349	-45.3
3994.86	-45.75
3997.369	-45.84
3999.877	-46.2
4002.382	-47.11
4004.886	-47.57
4007.388	-48.11
4009.888	-48.02
4012.386	-48.3
4014.883	-49.02
4017.377	-49.2
4019.87	-50.2
4022.361	-50.39
4024.85	-50.66
4027.338	-50.66
4029.823	-50.39
4032.307	-50.11
4034.789	-49.75
4037.269	-49.02
4039.747	-48.48
4042.224	-47.66
4044.699	-46.93
4047.172	-46.11
4049.643	-45.57
4052.112	-44.66
4054.58	-44.84
4057.046	-44.75
4059.51	-44.39
4061.972	-44.75
4064.432	-45.2
4066.891	-45.66
4069.348	-45.57
4071.803	-45.84
4074.256	-46.48
4076.708	-46.66
4079.158	-48.11
4081.606	-48.3
4084.052	-48.57
4086.497	-48.66
4088.939	-48.48
4091.38	-48.75
4093.819	-42.11
4096.257	-36.75
4098.693	-30.57
4101.127	-24.39
4103.559	-19.11
4105.989	-13.2
4108.418	-13.11
4110.845	-13.75
4113.27	-14.84
4115.694	-15.3
4118.115	-15.39
4120.535	-21.75
4122.954	-27.66
4125.37	-34.48
4127.785	-40.48
4130.198	-46.39
4132.609	-52.35
4135.019	-52.53
4137.427	-51.88
4139.833	-51.04
4142.237	-50.75