File: Data/Raman/2017-08-24 - Glass, alluminum 108/Aluminum II [full set]/Alu-EC-Blank 30s,I=1, BC=3, 1sta _RamanShift_2.txt
Data from Alu-Blank 30s,I=1, BC=3, 1sta _RamanShift_2.txt Node

Date: Thu Aug 24 13:28:51 IDT 2017
User: aro
Spectrometer: QEPB0276
Trigger mode: 0
Integration Time (sec): 3.000000E1
Scans to average: 1
Electric dark correction enabled: true
Nonlinearity correction enabled: false
Boxcar width: 5
XAxis mode: Raman Shifts
Number of Pixels in Spectrum: 1044
>>>>>Begin Spectral Data<<<<<
160.701	174.42
166.742	269.46
172.777	368.38
178.805	455.19
184.826	525.65
190.841	586.02
196.849	694.57
202.85	805.66
208.845	918.93
214.833	1025.48
220.815	1122.57
226.789	1196.02
232.758	1242.75
238.719	1271.66
244.674	1295.39
250.623	1321.2
256.565	1345.84
262.5	1369.11
268.429	1393.57
274.351	1416.11
280.267	1438.93
286.176	1458.93
292.079	1478.75
297.975	1499.2
303.865	1518.66
309.748	1536.84
315.625	1553.75
321.495	1569.93
327.359	1586.11
333.217	1601.93
339.068	1617.3
344.912	1640.3
350.751	1671.57
356.583	1708.11
362.408	1738.39
368.227	1759.48
374.04	1780.75
379.847	1811.3
385.647	1873.11
391.44	1966.39
397.228	2059.02
403.009	2114.2
408.784	2129.93
414.553	2126.48
420.315	2112.11
426.071	2099.3
431.821	2090.2
437.565	2077.3
443.302	2050.75
449.033	1989.57
454.758	1893.84
460.477	1793.02
466.189	1726.48
471.896	1687.02
477.596	1645.57
483.29	1596.39
488.978	1539.3
494.66	1478.84
500.335	1413.11
506.005	1345.39
511.668	1275.66
517.325	1204.3
522.977	1133.02
528.622	1062.3
534.261	995.84
539.894	941.93
545.521	898.57
551.141	867.66
556.756	843.11
562.365	825.75
567.968	812.3
573.565	803.57
579.155	797.75
584.74	793.2
590.319	788.93
595.892	783.39
601.459	777.84
607.02	775.48
612.575	778.93
618.124	794.84
623.667	815.84
629.204	829.39
634.735	828.66
640.261	821.2
645.781	811.3
651.294	800.66
656.802	790.48
662.304	781.84
667.8	769.75
673.29	750.2
678.775	719.57
684.254	682.84
689.726	653.75
695.193	638.02
700.655	630.93
706.11	626.48
711.56	625.84
717.004	627.3
722.442	630.75
727.874	638.2
733.301	644.66
738.722	647.84
744.137	651.57
749.547	657.11
754.951	665.39
760.349	671.84
765.741	679.2
771.128	684.93
776.509	690.2
781.885	692.39
787.254	691.02
792.618	689.2
797.977	689.57
803.33	689.84
808.677	687.84
814.019	681.3
819.355	674.39
824.686	665.48
830.011	654.3
835.33	641.39
840.644	627.3
845.952	613.2
851.255	599.84
856.552	587.57
861.844	574.75
867.13	562.93
872.41	552.57
877.686	541.48
882.955	531.02
888.219	522.57
893.478	515.75
898.731	509.75
903.979	506.02
909.221	502.66
914.458	499.02
919.69	497.11
924.916	494.39
930.136	492.48
935.351	491.11
940.561	490.3
945.766	489.02
950.965	485.75
956.158	483.02
961.347	478.66
966.529	475.75
971.707	471.48
976.879	467.75
982.046	465.57
987.208	463.48
992.364	462.39
997.515	462.66
1002.66	463.3
1007.801	466.39
1012.936	469.3
1018.066	473.48
1023.19	476.3
1028.309	480.66
1033.423	484.48
1038.532	485.3
1043.636	487.93
1048.734	489.3
1053.827	490.75
1058.915	491.3
1063.998	490.39
1069.075	488.84
1074.147	486.48
1079.214	484.93
1084.276	481.93
1089.333	477.75
1094.385	474.75
1099.431	471.11
1104.472	465.75
1109.509	459.2
1114.54	453.3
1119.565	449.39
1124.586	445.75
1129.602	442.11
1134.613	439.2
1139.618	437.11
1144.619	435.66
1149.614	435.2
1154.604	434.48
1159.589	435.3
1164.57	436.66
1169.545	437.93
1174.515	437.66
1179.48	438.02
1184.44	437.75
1189.395	437.75
1194.345	438.02
1199.29	438.57
1204.23	439.57
1209.165	439.3
1214.095	440.3
1219.021	440.02
1223.941	438.75
1228.856	438.11
1233.766	435.11
1238.672	433.39
1243.572	428.48
1248.467	423.39
1253.358	417.66
1258.244	412.66
1263.124	408.02
1268	403.66
1272.871	398.84
1277.737	396.57
1282.599	394.3
1287.455	393.66
1292.306	392.2
1297.153	393.57
1301.995	394.75
1306.832	396.48
1311.664	395.48
1316.491	394.39
1321.314	392.02
1326.132	390.93
1330.945	388.11
1335.753	383.75
1340.556	380.02
1345.354	377.3
1350.148	373.39
1354.937	370.48
1359.722	366.75
1364.501	364.57
1369.276	363.57
1374.046	360.75
1378.811	357.3
1383.572	353.66
1388.327	350.3
1393.079	347.3
1397.825	343.57
1402.567	340.57
1407.304	337.66
1412.036	336.48
1416.764	335.3
1421.487	334.39
1426.205	335.2
1430.919	336.2
1435.628	337.84
1440.333	340.75
1445.032	342.48
1449.727	343.66
1454.418	344.75
1459.104	344.48
1463.785	343.02
1468.462	341.48
1473.134	339.39
1477.802	337.57
1482.465	336.93
1487.123	336.66
1491.777	336.11
1496.426	335.48
1501.071	336.02
1505.711	336.11
1510.347	335.57
1514.978	334.93
1519.604	333.93
1524.226	332.93
1528.844	332.48
1533.457	335.93
1538.065	339.66
1542.669	340.84
1547.269	338.39
1551.864	334.48
1556.454	331.11
1561.041	329.3
1565.622	327.93
1570.199	326.11
1574.772	323.48
1579.34	320.84
1583.904	313.93
1588.464	305.48
1593.019	299.02
1597.569	296.66
1602.115	295.93
1606.657	294.57
1611.195	292.75
1615.728	290.75
1620.256	290.75
1624.78	290.11
1629.3	289.3
1633.816	288.57
1638.327	288.11
1642.834	288.84
1647.336	289.48
1651.834	289.84
1656.328	289.66
1660.817	289.39
1665.302	288.93
1669.783	287.66
1674.259	286.57
1678.732	283.3
1683.199	279.93
1687.663	277.93
1692.122	273.93
1696.577	270.66
1701.028	266.66
1705.474	262.84
1709.917	259.02
1714.355	255.3
1718.788	250.75
1723.218	246.84
1727.643	244.57
1732.064	241.48
1736.481	236.84
1740.893	233.93
1745.301	231.02
1749.705	227.2
1754.105	223.39
1758.501	221.2
1762.893	218.75
1767.28	217.93
1771.663	216.2
1776.042	213.39
1780.417	212.11
1784.787	211.48
1789.154	209.57
1793.516	207.57
1797.874	206.57
1802.228	206.57
1806.578	204.3
1810.924	201.93
1815.266	198.48
1819.603	196.02
1823.937	195.02
1828.266	192.39
1832.591	189.48
1836.913	188.39
1841.23	186.3
1845.543	185.39
1849.852	183.3
1854.156	182.48
1858.457	182.2
1862.754	181.84
1867.047	181.66
1871.335	181.11
1875.62	181.48
1879.9	182.2
1884.177	182.3
1888.449	182.11
1892.718	181.02
1896.982	180.75
1901.243	181.02
1905.499	180.2
1909.752	180.93
1914	180.57
1918.245	179.84
1922.485	179.2
1926.722	178.02
1930.954	176.84
1935.183	176.3
1939.408	175.2
1943.628	173.57
1947.845	170.57
1952.058	168.84
1956.267	164.39
1960.472	161.84
1964.673	159.57
1968.87	156.02
1973.063	153.2
1977.252	150.2
1981.438	147.3
1985.619	144.93
1989.797	143.02
1993.971	142.11
1998.14	140.2
2002.306	139.66
2006.469	138.02
2010.627	135.66
2014.781	134.3
2018.932	132.75
2023.078	130.93
2027.221	129.39
2031.36	127.66
2035.495	126.84
2039.627	125.84
2043.754	124.93
2047.878	124.3
2051.998	124.66
2056.114	125.3
2060.226	125.48
2064.334	125.93
2068.439	126.75
2072.54	127.57
2076.637	128.66
2080.73	128.11
2084.82	127.57
2088.906	127.84
2092.988	126.84
2097.066	124.75
2101.14	123.57
2105.211	122.84
2109.278	122.02
2113.342	120.2
2117.401	118.66
2121.457	116.39
2125.509	115.57
2129.558	114.48
2133.602	111.57
2137.643	110.39
2141.681	109.2
2145.714	107.39
2149.744	105.66
2153.77	103.3
2157.793	102.2
2161.812	99.84
2165.827	98.39
2169.838	96.3
2173.846	93.84
2177.851	92.75
2181.851	90.93
2185.848	89.11
2189.841	87.57
2193.831	86.02
2197.817	85.02
2201.799	83.57
2205.778	83.39
2209.753	83.02
2213.725	82.39
2217.693	82.3
2221.657	82.93
2225.618	82.66
2229.575	82.3
2233.529	82.75
2237.479	83.39
2241.425	82.75
2245.368	82.02
2249.307	81.75
2253.243	80.57
2257.175	80.11
2261.104	79.02
2265.029	77.3
2268.95	76.57
2272.868	76.3
2276.783	75.02
2280.694	73.02
2284.601	72.02
2288.505	71.66
2292.405	70.2
2296.302	70.11
2300.195	69.02
2304.085	69.11
2307.971	71.57
2311.854	80.2
2315.734	89.57
2319.609	94.66
2323.482	95.02
2327.351	94.93
2331.216	93.57
2335.078	93.11
2338.937	91.02
2342.792	89.57
2346.643	87.11
2350.492	83.48
2354.336	73.11
2358.178	62.02
2362.015	55.39
2365.85	53.66
2369.681	52.3
2373.508	51.48
2377.333	50.75
2381.153	50.48
2384.971	50.93
2388.785	51.66
2392.595	50.2
2396.402	49.48
2400.206	48.48
2404.007	47.66
2407.804	46.3
2411.597	46.11
2415.388	45.93
2419.174	45.84
2422.958	45.39
2426.738	44.02
2430.515	42.2
2434.289	42.3
2438.059	42.11
2441.825	41.84
2445.589	41.11
2449.349	41.57
2453.106	40.75
2456.859	40.11
2460.61	38.93
2464.356	38.02
2468.1	37.2
2471.84	36.39
2475.577	35.48
2479.311	34.11
2483.041	33.84
2486.768	33.02
2490.492	31.75
2494.213	31.48
2497.93	31.57
2501.644	31.3
2505.355	31.48
2509.062	31.93
2512.766	34.84
2516.467	34.3
2520.165	33.84
2523.859	32.93
2527.551	33.39
2531.239	34.02
2534.923	33.57
2538.605	31.93
2542.283	31.11
2545.958	30.57
2549.63	29.48
2553.299	26.57
2556.964	26.3
2560.626	26.48
2564.285	26.3
2567.941	25.39
2571.594	24.3
2575.243	23.57
2578.89	23.84
2582.533	23.02
2586.173	22.84
2589.809	22.66
2593.443	22.2
2597.073	21.02
2600.701	20.48
2604.325	19.2
2607.946	19.02
2611.564	18.66
2615.178	18.3
2618.79	17.02
2622.398	16.93
2626.004	15.48
2629.606	14.11
2633.205	13.3
2636.801	12.93
2640.394	11.84
2643.983	10.93
2647.57	9.66
2651.153	8.2
2654.734	7.02
2658.311	6.57
2661.885	5.48
2665.456	4.84
2669.025	4.48
2672.589	3.66
2676.151	3.57
2679.71	3.02
2683.266	2.84
2686.819	2.39
2690.368	1.84
2693.915	1.84
2697.458	1.48
2700.999	1.2
2704.536	1.02
2708.071	0.48
2711.602	0.48
2715.13	0.2
2718.656	0.11
2722.178	0.48
2725.697	0.48
2729.214	0.93
2732.727	-0.16
2736.237	-0.25
2739.744	-0.07
2743.249	-0.25
2746.75	-0.43
2750.248	-1.34
2753.743	-2.61
2757.236	-3.34
2760.725	-5.34
2764.211	-6.61
2767.695	-7.61
2771.175	-7.89
2774.652	-8.7
2778.127	-10.25
2781.598	-10.8
2785.067	-12.25
2788.532	-12.25
2791.995	-12.34
2795.455	-12.98
2798.911	-12.8
2802.365	-12.8
2805.816	-12.89
2809.264	-12.98
2812.709	-12.89
2816.151	-12.8
2819.59	-13.16
2823.026	-11.98
2826.46	-12.43
2829.89	-12.07
2833.318	-12.43
2836.742	-11.8
2840.164	-12.07
2843.583	-12.43
2846.999	-11.98
2850.412	-12.52
2853.822	-12.34
2857.229	-12.43
2860.634	-13.16
2864.035	-13.43
2867.434	-14.34
2870.83	-13.89
2874.223	-14.7
2877.613	-15.34
2881	-15.8
2884.385	-17.34
2887.766	-18.7
2891.145	-19.98
2894.521	-20.98
2897.894	-22.25
2901.264	-23.34
2904.631	-24.25
2907.996	-24.98
2911.358	-25.8
2914.717	-26.34
2918.073	-27.25
2921.426	-27.98
2924.777	-27.61
2928.124	-27.52
2931.469	-27.98
2934.811	-27.61
2938.15	-28.07
2941.487	-28.8
2944.821	-29.34
2948.152	-29.25
2951.48	-29.34
2954.805	-28.89
2958.128	-28.7
2961.447	-28.7
2964.765	-29.16
2968.079	-28.98
2971.39	-28.61
2974.699	-27.98
2978.005	-27.7
2981.308	-28.16
2984.609	-28.52
2987.907	-29.07
2991.202	-29.52
2994.494	-30.07
2997.784	-30.25
3001.07	-30.52
3004.355	-30.7
3007.636	-32.52
3010.915	-33.52
3014.191	-34.07
3017.464	-33.98
3020.734	-35.07
3024.002	-35.52
3027.267	-36.61
3030.53	-36.7
3033.789	-37.8
3037.046	-38.52
3040.301	-38.89
3043.552	-38.8
3046.801	-39.07
3050.048	-39.07
3053.291	-40.07
3056.532	-39.89
3059.771	-39.16
3063.006	-38.7
3066.239	-38.89
3069.469	-38.89
3072.697	-39.07
3075.922	-39.07
3079.144	-39.25
3082.364	-39.52
3085.581	-39.25
3088.795	-38.98
3092.007	-39.52
3095.216	-40.43
3098.423	-41.43
3101.627	-41.61
3104.828	-41.16
3108.026	-40.61
3111.222	-41.61
3114.416	-41.89
3117.607	-41.8
3120.795	-42.8
3123.98	-43.52
3127.163	-43.34
3130.344	-43.43
3133.521	-42.43
3136.696	-42.7
3139.869	-43.98
3143.039	-45.07
3146.206	-44.8
3149.371	-45.07
3152.533	-45.52
3155.693	-45.8
3158.85	-45.16
3162.005	-45.89
3165.157	-46.98
3168.306	-48.07
3171.453	-48.7
3174.597	-48.25
3177.739	-47.8
3180.878	-48.89
3184.014	-48.8
3187.149	-48.43
3190.28	-47.7
3193.409	-48.25
3196.536	-47.43
3199.659	-46.7
3202.781	-46.89
3205.9	-46.98
3209.016	-47.25
3212.13	-47.61
3215.241	-47.07
3218.35	-47.25
3221.456	-47.89
3224.56	-48.34
3227.661	-48.89
3230.76	-49.16
3233.856	-49.89
3236.95	-49.98
3240.041	-49.98
3243.13	-49.7
3246.216	-49.61
3249.3	-49.89
3252.382	-49.98
3255.46	-50.16
3258.537	-50.7
3261.611	-50.7
3264.682	-51.25
3267.751	-50.61
3270.818	-51.16
3273.882	-51.34
3276.943	-51.61
3280.002	-51.89
3283.059	-52.34
3286.113	-52.61
3289.165	-52.16
3292.214	-52.07
3295.261	-52.34
3298.306	-52.52
3301.348	-52.89
3304.387	-52.52
3307.425	-52.43
3310.459	-53.43
3313.492	-53.61
3316.521	-53.43
3319.549	-52.7
3322.574	-53.16
3325.597	-53.7
3328.617	-53.52
3331.635	-53.25
3334.65	-53.25
3337.663	-52.61
3340.674	-52.7
3343.682	-52.25
3346.688	-52.16
3349.691	-52.7
3352.692	-53.25
3355.691	-53.25
3358.687	-52.89
3361.681	-53.89
3364.673	-54.25
3367.662	-54.16
3370.649	-55.25
3373.633	-55.43
3376.615	-55.61
3379.595	-55.89
3382.572	-55.89
3385.547	-56.61
3388.52	-56.61
3391.49	-56.7
3394.458	-55.98
3397.424	-56.34
3400.387	-57.07
3403.348	-56.8
3406.307	-57.07
3409.263	-57.16
3412.217	-57.07
3415.168	-56.61
3418.118	-56.25
3421.065	-56.61
3424.009	-56.61
3426.951	-55.98
3429.891	-55.25
3432.829	-54.61
3435.764	-55.07
3438.697	-54.7
3441.628	-54.25
3444.557	-53.8
3447.483	-53.43
3450.407	-53.16
3453.328	-53.43
3456.247	-53.07
3459.164	-53.52
3462.079	-53.8
3464.991	-54.07
3467.902	-53.98
3470.809	-54.16
3473.715	-55.25
3476.618	-56.43
3479.519	-56.8
3482.418	-57.89
3485.315	-57.43
3488.209	-58.7
3491.101	-58.89
3493.99	-59.16
3496.878	-58.98
3499.763	-59.16
3502.646	-59.52
3505.527	-59.16
3508.405	-59.61
3511.281	-59.61
3514.155	-58.8
3517.027	-59.07
3519.897	-58.25
3522.764	-57.98
3525.629	-58.43
3528.492	-58.98
3531.352	-58.16
3534.211	-57.34
3537.067	-56.7
3539.921	-56.43
3542.773	-56.89
3545.622	-57.43
3548.469	-56.89
3551.315	-57.16
3554.157	-57.43
3556.998	-57.25
3559.837	-56.52
3562.673	-56.89
3565.507	-57.52
3568.339	-58.16
3571.169	-57.98
3573.996	-58.16
3576.822	-58.34
3579.645	-58.8
3582.466	-58.98
3585.285	-59.25
3588.101	-59.25
3590.916	-60.8
3593.728	-60.8
3596.538	-60.8
3599.346	-61.16
3602.152	-61.61
3604.956	-62.16
3607.757	-61.8
3610.556	-61.89
3613.354	-61.7
3616.149	-61.7
3618.942	-61.7
3621.732	-60.34
3624.521	-60.52
3627.307	-60.7
3630.092	-60.07
3632.874	-59.43
3635.654	-58.61
3638.432	-58.43
3641.208	-58.61
3643.982	-58.98
3646.753	-58.8
3649.523	-59.07
3652.29	-59.7
3655.055	-60.25
3657.818	-59.89
3660.579	-60.25
3663.338	-60.61
3666.095	-61.07
3668.849	-61.8
3671.602	-61.43
3674.352	-61.07
3677.101	-61.8
3679.847	-61.43
3682.591	-61.52
3685.333	-60.89
3688.073	-61.34
3690.811	-61.43
3693.547	-61.43
3696.281	-60.89
3699.013	-60.98
3701.742	-61.16
3704.47	-61.61
3707.195	-61.52
3709.919	-61.98
3712.64	-61.98
3715.359	-62.07
3718.076	-62.16
3720.792	-62.61
3723.505	-62.34
3726.216	-62.61
3728.925	-62.61
3731.632	-63.34
3734.336	-63.16
3737.039	-62.8
3739.74	-61.52
3742.439	-61.61
3745.136	-62.43
3747.83	-62.8
3750.523	-61.98
3753.213	-61.98
3755.902	-62.07
3758.589	-61.25
3761.273	-60.52
3763.956	-60.8
3766.636	-61.61
3769.315	-62.61
3771.991	-64.07
3774.665	-65.8
3777.338	-65.16
3780.008	-65.43
3782.677	-65.43
3785.343	-65.52
3788.007	-66.16
3790.67	-66.34
3793.33	-65.52
3795.989	-64.89
3798.645	-64.7
3801.299	-63.89
3803.952	-61.34
3806.602	-61.89
3809.251	-62.25
3811.897	-62.89
3814.542	-63.16
3817.184	-62.52
3819.825	-63.43
3822.463	-63.89
3825.1	-64.34
3827.735	-65.25
3830.367	-64.61
3832.998	-64.98
3835.627	-64.61
3838.253	-64.16
3840.878	-63.98
3843.501	-63.52
3846.122	-64.07
3848.741	-63.25
3851.358	-62.89
3853.973	-61.7
3856.586	-59.7
3859.197	-58.16
3861.806	-55.34
3864.414	-50.43
3867.019	-43.07
3869.622	-31.61
3872.224	-19.16
3874.823	-8.8
3877.421	-2.61
3880.016	0.57
3882.61	1.75
3885.202	1.48
3887.792	0.48
3890.38	-2.43
3892.966	-7.34
3895.55	-14.25
3898.132	-24.7
3900.713	-37.16
3903.291	-47.16
3905.868	-53.8
3908.442	-57.61
3911.015	-59.43
3913.586	-60.52
3916.155	-60.98
3918.722	-60.98
3921.287	-61.16
3923.85	-62.34
3926.411	-63.07
3928.971	-63.98
3931.528	-64.07
3934.084	-64.16
3936.638	-64.25
3939.19	-64.98
3941.74	-65.07
3944.288	-64.89
3946.834	-63.89
3949.378	-63.34
3951.921	-62.43
3954.462	-62.07
3957	-60.8
3959.537	-61.34
3962.072	-60.43
3964.606	-59.89
3967.137	-58.43
3969.667	-57.61
3972.194	-57.25
3974.72	-57.34
3977.244	-57.43
3979.766	-56.89
3982.286	-57.16
3984.805	-57.52
3987.321	-56.98
3989.836	-57.43
3992.349	-57.89
3994.86	-58.34
3997.369	-58.7
3999.877	-59.61
4002.382	-60.8
4004.886	-61.25
4007.388	-62.52
4009.888	-62.89
4012.386	-63.16
4014.883	-63.7
4017.377	-63.98
4019.87	-64.07
4022.361	-64.7
4024.85	-65.43
4027.338	-64.98
4029.823	-64.61
4032.307	-64.7
4034.789	-64.52
4037.269	-63.89
4039.747	-63.8
4042.224	-62.7
4044.699	-62.7
4047.172	-62.43
4049.643	-61.61
4052.112	-61.07
4054.58	-61.52
4057.046	-60.89
4059.51	-60.34
4061.972	-59.8
4064.432	-59.98
4066.891	-59.89
4069.348	-60.7
4071.803	-60.7
4074.256	-60.8
4076.708	-61.16
4079.158	-61.43
4081.606	-60.7
4084.052	-61.61
4086.497	-61.8
4088.939	-61.98
4091.38	-62.34
4093.819	-51.89
4096.257	-41.34
4098.693	-31.25
4101.127	-21.07
4103.559	-12.34
4105.989	-3.52
4108.418	-3.7
4110.845	-3.89
4113.27	-4.34
4115.694	-4.98
4118.115	-4.61
4120.535	-14.7
4122.954	-25.16
4125.37	-35.07
4127.785	-45.43
4130.198	-54.43
4132.609	-63.35
4135.019	-63.81
4137.427	-63.25
4139.833	-62.82
4142.237	-62.08