File: Data/Raman/2017-08-24 - Glass, alluminum 108/Aluminum II [full set]/Alu-EC-Blank 30s,I=1, BC=3, 1sta _RamanShift_3.txt
Data from Alu-Blank 30s,I=1, BC=3, 1sta _RamanShift_3.txt Node

Date: Thu Aug 24 13:29:21 IDT 2017
User: aro
Spectrometer: QEPB0276
Trigger mode: 0
Integration Time (sec): 3.000000E1
Scans to average: 1
Electric dark correction enabled: true
Nonlinearity correction enabled: false
Boxcar width: 5
XAxis mode: Raman Shifts
Number of Pixels in Spectrum: 1044
>>>>>Begin Spectral Data<<<<<
160.701	175.88
166.742	272.16
172.777	370.88
178.805	458.43
184.826	529.77
190.841	590.06
196.849	697.6
202.85	807.42
208.845	920.06
214.833	1028.15
220.815	1126.78
226.789	1201.15
232.758	1246.78
238.719	1277.33
244.674	1299.6
250.623	1324.33
256.565	1349.69
262.5	1375.06
268.429	1400.15
274.351	1423.15
280.267	1444.51
286.176	1464.33
292.079	1485.69
297.975	1506.88
303.865	1525.33
309.748	1544.33
315.625	1561.88
321.495	1578.24
327.359	1593.88
333.217	1608.6
339.068	1625.97
344.912	1647.97
350.751	1678.33
356.583	1712.6
362.408	1743.42
368.227	1765.24
374.04	1785.69
379.847	1817.24
385.647	1876.88
391.44	1970.97
397.228	2065.78
403.009	2121.69
408.784	2137.42
414.553	2135.69
420.315	2122.88
426.071	2109.24
431.821	2100.42
437.565	2088.15
443.302	2060.06
449.033	2000.33
454.758	1901.69
460.477	1802.42
466.189	1736.24
471.896	1697.06
477.596	1653.78
483.29	1602.97
488.978	1545.24
494.66	1485.6
500.335	1424.06
506.005	1356.69
511.668	1288.51
517.325	1219.69
522.977	1146.51
528.622	1073.51
534.261	1007.78
539.894	952.15
545.521	910.06
551.141	880.06
556.756	853.88
562.365	832.42
567.968	818.51
573.565	809.6
579.155	801.6
584.74	795.97
590.319	790.33
595.892	784.97
601.459	779.42
607.02	775.24
612.575	777.69
618.124	792.97
623.667	814.15
629.204	826.78
634.735	825.51
640.261	819.06
645.781	810.33
651.294	800.42
656.802	790.88
662.304	781.97
667.8	771.06
673.29	752.51
678.775	721.88
684.254	684.88
689.726	658.33
695.193	643.15
700.655	636.24
706.11	631.69
711.56	631.24
717.004	633.42
722.442	638.97
727.874	645.24
733.301	651.06
738.722	655.33
744.137	660.24
749.547	664.24
754.951	669.97
760.349	676.97
765.741	685.24
771.128	692.15
776.509	696.15
781.885	696.51
787.254	695.24
792.618	693.88
797.977	693.42
803.33	692.24
808.677	688.69
814.019	683.33
819.355	675.06
824.686	664.6
830.011	652.51
835.33	639.88
840.644	626.15
845.952	612.42
851.255	599.15
856.552	586.06
861.844	573.6
867.13	562.69
872.41	551.42
877.686	541.24
882.955	531.6
888.219	522.51
893.478	516.33
898.731	511.42
903.979	507.33
909.221	503.51
914.458	500.33
919.69	498.51
924.916	497.42
930.136	495.6
935.351	493.78
940.561	491.69
945.766	489.78
950.965	485.97
956.158	484.24
961.347	480.24
966.529	477.24
971.707	474.15
976.879	470.69
982.046	467.6
987.208	465.88
992.364	464.97
997.515	465.78
1002.66	468.06
1007.801	471.6
1012.936	473.15
1018.066	477.6
1023.19	481.06
1028.309	483.6
1033.423	485.51
1038.532	487.78
1043.636	490.69
1048.734	492.24
1053.827	493.06
1058.915	492.33
1063.998	490.6
1069.075	489.88
1074.147	488.33
1079.214	485.97
1084.276	483.24
1089.333	479.51
1094.385	476.06
1099.431	472.15
1104.472	466.69
1109.509	460.33
1114.54	454.6
1119.565	450.06
1124.586	446.06
1129.602	442.88
1134.613	439.88
1139.618	438.69
1144.619	438.42
1149.614	437.24
1154.604	436.24
1159.589	437.33
1164.57	438.88
1169.545	440.97
1174.515	441.78
1179.48	441.78
1184.44	441.06
1189.395	442.15
1194.345	441.97
1199.29	442.15
1204.23	442.15
1209.165	442.78
1214.095	442.24
1219.021	442.6
1223.941	440.42
1228.856	438.42
1233.766	435.88
1238.672	432.97
1243.572	428.24
1248.467	422.88
1253.358	418.6
1258.244	413.51
1263.124	408.88
1268	405.15
1272.871	400.33
1277.737	399.69
1282.599	398.15
1287.455	397.06
1292.306	396.06
1297.153	396.69
1301.995	397.06
1306.832	397.42
1311.664	398.33
1316.491	397.97
1321.314	395.15
1326.132	394.24
1330.945	389.78
1335.753	386.97
1340.556	383.51
1345.354	380.33
1350.148	375.78
1354.937	373.33
1359.722	369.88
1364.501	366.6
1369.276	362.42
1374.046	360.24
1378.811	355.6
1383.572	352.51
1388.327	348.6
1393.079	345.33
1397.825	342.51
1402.567	340.33
1407.304	337.42
1412.036	335.42
1416.764	334.33
1421.487	334.33
1426.205	334.51
1430.919	336.78
1435.628	339.15
1440.333	341.6
1445.032	343.69
1449.727	344.69
1454.418	345.15
1459.104	346.78
1463.785	346.51
1468.462	345.33
1473.134	344.15
1477.802	343.33
1482.465	341.97
1487.123	340.69
1491.777	338.97
1496.426	338.51
1501.071	338.78
1505.711	338.69
1510.347	336.24
1514.978	334.97
1519.604	333.51
1524.226	331.97
1528.844	331.88
1533.457	334.51
1538.065	338.24
1542.669	340.69
1547.269	338.42
1551.864	334.51
1556.454	332.51
1561.041	331.06
1565.622	329.6
1570.199	328.51
1574.772	328.06
1579.34	325.24
1583.904	318.6
1588.464	311.51
1593.019	304.97
1597.569	303.06
1602.115	301.78
1606.657	299.78
1611.195	297.6
1615.728	296.42
1620.256	294.51
1624.78	292.06
1629.3	291.42
1633.816	290.33
1638.327	289.69
1642.834	289.51
1647.336	289.33
1651.834	289.6
1656.328	288.88
1660.817	289.06
1665.302	288.06
1669.783	287.06
1674.259	285.88
1678.732	283.88
1683.199	282.24
1687.663	278.88
1692.122	275.78
1696.577	271.51
1701.028	267.69
1705.474	263.97
1709.917	260.69
1714.355	256.78
1718.788	252.6
1723.218	248.69
1727.643	244.51
1732.064	241.06
1736.481	237.15
1740.893	233.78
1745.301	230.51
1749.705	228.06
1754.105	224.88
1758.501	223.42
1762.893	220.97
1767.28	219.97
1771.663	218.42
1776.042	216.42
1780.417	214.88
1784.787	214.15
1789.154	213.69
1793.516	212.88
1797.874	210.06
1802.228	208.51
1806.578	204.51
1810.924	202.88
1815.266	200.33
1819.603	197.88
1823.937	196.33
1828.266	193.97
1832.591	190.97
1836.913	188.69
1841.23	186.33
1845.543	186.15
1849.852	185.97
1854.156	185.6
1858.457	185.06
1862.754	184.69
1867.047	184.42
1871.335	183.78
1875.62	183.24
1879.9	184.15
1884.177	183.69
1888.449	183.33
1892.718	183.15
1896.982	182.24
1901.243	182.15
1905.499	181.42
1909.752	180.88
1914	180.6
1918.245	181.33
1922.485	181.06
1926.722	179.88
1930.954	179.42
1935.183	178.97
1939.408	177.06
1943.628	175.51
1947.845	172.88
1952.058	170.33
1956.267	168.6
1960.472	165.42
1964.673	161.15
1968.87	158.24
1973.063	155.69
1977.252	152.24
1981.438	149.6
1985.619	147.6
1989.797	145.78
1993.971	144.51
1998.14	142.51
2002.306	140.51
2006.469	139.42
2010.627	138.33
2014.781	136.88
2018.932	135.33
2023.078	133.6
2027.221	131.88
2031.36	129.51
2035.495	127.78
2039.627	126.88
2043.754	126.15
2047.878	125.6
2051.998	125.51
2056.114	125.24
2060.226	125.6
2064.334	125.06
2068.439	125.24
2072.54	125.51
2076.637	126.97
2080.73	126.69
2084.82	126.6
2088.906	125.24
2092.988	124.06
2097.066	122.6
2101.14	121.69
2105.211	120.24
2109.278	119.15
2113.342	118.24
2117.401	116.97
2121.457	115.24
2125.509	114.06
2129.558	111.88
2133.602	111.24
2137.643	110.15
2141.681	108.88
2145.714	106.97
2149.744	104.87
2153.77	103.6
2157.793	101.51
2161.812	99.69
2165.827	97.78
2169.838	96.6
2173.846	95.33
2177.851	94.15
2181.851	92.15
2185.848	91.15
2189.841	90.06
2193.831	89.6
2197.817	88.33
2201.799	87.97
2205.778	87.69
2209.753	87.06
2213.725	86.06
2217.693	85.42
2221.657	85.42
2225.618	85.06
2229.575	83.24
2233.529	82.97
2237.479	82.06
2241.425	80.88
2245.368	79.88
2249.307	79.06
2253.243	77.6
2257.175	76.69
2261.104	75.78
2265.029	74.42
2268.95	73.88
2272.868	74.42
2276.783	73.69
2280.694	72.88
2284.601	72.06
2288.505	71.51
2292.405	70.42
2296.302	69.88
2300.195	69.78
2304.085	70.24
2307.971	72.97
2311.854	81.51
2315.734	91.78
2319.609	97.15
2323.482	97.33
2327.351	97.33
2331.216	96.24
2335.078	96.06
2338.937	95.33
2342.792	93.51
2346.643	90.69
2350.492	86.6
2354.336	75.88
2358.178	63.97
2362.015	57.15
2365.85	55.42
2369.681	54.15
2373.508	53.24
2377.333	52.06
2381.153	51.15
2384.971	51.15
2388.785	51.78
2392.595	50.97
2396.402	50.24
2400.206	49.24
2404.007	48.78
2407.804	47.15
2411.597	46.69
2415.388	46.06
2419.174	45.69
2422.958	45.51
2426.738	43.97
2430.515	42.33
2434.289	41.51
2438.059	40.69
2441.825	40.15
2445.589	38.97
2449.349	39.24
2453.106	38.51
2456.859	37.88
2460.61	37.15
2464.356	36.15
2468.1	36.24
2471.84	35.51
2475.577	35.33
2479.311	35.42
2483.041	34.78
2486.768	34.15
2490.492	33.88
2494.213	33.33
2497.93	34.6
2501.644	34.33
2505.355	33.97
2509.062	33.24
2512.766	33.24
2516.467	32.69
2520.165	31.33
2523.859	30.97
2527.551	30.6
2531.239	29.97
2534.923	29.6
2538.605	27.51
2542.283	26.97
2545.958	26.88
2549.63	26.88
2553.299	27.06
2556.964	26.78
2560.626	27.15
2564.285	26.78
2567.941	25.78
2571.594	25.69
2575.243	24.6
2578.89	24.24
2582.533	23.06
2586.173	22.33
2589.809	22.06
2593.443	20.97
2597.073	20.15
2600.701	19.97
2604.325	19.24
2607.946	19.42
2611.564	18.24
2615.178	18.06
2618.79	17.33
2622.398	16.6
2626.004	16.24
2629.606	14.51
2633.205	14.24
2636.801	12.78
2640.394	11.69
2643.983	10.15
2647.57	9.24
2651.153	8.33
2654.734	7.87
2658.311	7.33
2661.885	6.78
2665.456	5.51
2669.025	5.69
2672.589	4.06
2676.151	3.78
2679.71	3.06
2683.266	3.33
2686.819	2.06
2690.368	0.88
2693.915	0.69
2697.458	-0.12
2700.999	-0.94
2704.536	-1.22
2708.071	-2.49
2711.602	-2.22
2715.13	-2.58
2718.656	-2.58
2722.178	-2.67
2725.697	-2.22
2729.214	-1.12
2732.727	-2.49
2736.237	-2.58
2739.744	-2.31
2743.249	-2.58
2746.75	-2.94
2750.248	-3.67
2753.743	-4.22
2757.236	-5.03
2760.725	-6.31
2764.211	-6.94
2767.695	-8.31
2771.175	-8.03
2774.652	-8.31
2778.127	-8.76
2781.598	-8.49
2785.067	-8.94
2788.532	-9.22
2791.995	-8.4
2795.455	-9.03
2798.911	-9.12
2802.365	-9.58
2805.816	-9.03
2809.264	-8.85
2812.709	-8.85
2816.151	-9.31
2819.59	-10.4
2823.026	-9.85
2826.46	-10.03
2829.89	-10.31
2833.318	-10.94
2836.742	-11.31
2840.164	-12.22
2843.583	-12.85
2846.999	-13.12
2850.412	-14.22
2853.822	-14.67
2857.229	-15.03
2860.634	-15.67
2864.035	-15.85
2867.434	-17.22
2870.83	-16.67
2874.223	-17.31
2877.613	-17.12
2881	-17.4
2884.385	-18.67
2887.766	-19.22
2891.145	-20.4
2894.521	-21.12
2897.894	-22.03
2901.264	-22.49
2904.631	-23.22
2907.996	-24.12
2911.358	-23.85
2914.717	-24.85
2918.073	-25.85
2921.426	-26.4
2924.777	-26.22
2928.124	-25.85
2931.469	-26.31
2934.811	-26.49
2938.15	-26.94
2941.487	-27.49
2944.821	-27.67
2948.152	-28.03
2951.48	-27.67
2954.805	-27.49
2958.128	-27.76
2961.447	-28.22
2964.765	-28.67
2968.079	-28.67
2971.39	-28.4
2974.699	-28.49
2978.005	-27.94
2981.308	-28.22
2984.609	-28.94
2987.907	-30.03
2991.202	-30.58
2994.494	-30.94
2997.784	-31.4
3001.07	-30.76
3004.355	-30.76
3007.636	-31.4
3010.915	-32.12
3014.191	-32.94
3017.464	-33.12
3020.734	-33.22
3024.002	-32.85
3027.267	-33.4
3030.53	-33.76
3033.789	-34.76
3037.046	-35.94
3040.301	-36.4
3043.552	-37.12
3046.801	-37.49
3050.048	-36.85
3053.291	-37.94
3056.532	-37.85
3059.771	-38.22
3063.006	-37.85
3066.239	-37.76
3069.469	-37.31
3072.697	-38.31
3075.922	-38.12
3079.144	-38.22
3082.364	-38.85
3085.581	-39.76
3088.795	-39.31
3092.007	-40.4
3095.216	-40.85
3098.423	-41.85
3101.627	-41.94
3104.828	-42.22
3108.026	-40.76
3111.222	-41.67
3114.416	-41.76
3117.607	-41.94
3120.795	-42.58
3123.98	-43.31
3127.163	-43.03
3130.344	-42.85
3133.521	-42.67
3136.696	-42.67
3139.869	-42.94
3143.039	-44.12
3146.206	-43.67
3149.371	-43.76
3152.533	-43.49
3155.693	-43.58
3158.85	-42.94
3162.005	-43.67
3165.157	-44.4
3168.306	-44.85
3171.453	-45.58
3174.597	-45.22
3177.739	-45.03
3180.878	-46.03
3184.014	-46.49
3187.149	-46.22
3190.28	-46.22
3193.409	-47.4
3196.536	-46.76
3199.659	-46.85
3202.781	-46.94
3205.9	-47.4
3209.016	-48.22
3212.13	-48.76
3215.241	-48.76
3218.35	-49.03
3221.456	-49.58
3224.56	-49.4
3227.661	-49.22
3230.76	-49.58
3233.856	-49.94
3236.95	-50.22
3240.041	-50.31
3243.13	-50.58
3246.216	-50.49
3249.3	-50.4
3252.382	-49.76
3255.46	-50.12
3258.537	-50.22
3261.611	-50.58
3264.682	-50.67
3267.751	-49.76
3270.818	-49.49
3273.882	-49.22
3276.943	-48.94
3280.002	-48.85
3283.059	-48.76
3286.113	-49.67
3289.165	-48.94
3292.214	-48.94
3295.261	-48.94
3298.306	-49.49
3301.348	-49.85
3304.387	-50.49
3307.425	-50.85
3310.459	-51.4
3313.492	-51.49
3316.521	-52.31
3319.549	-51.94
3322.574	-52.31
3325.597	-53.31
3328.617	-53.49
3331.635	-53.58
3334.65	-54.58
3337.663	-54.12
3340.674	-54.12
3343.682	-54.4
3346.688	-54.67
3349.691	-54.67
3352.692	-54.76
3355.691	-54.85
3358.687	-54.4
3361.681	-54.94
3364.673	-55.22
3367.662	-54.12
3370.649	-55.22
3373.633	-55.22
3376.615	-55.12
3379.595	-55.22
3382.572	-54.67
3385.547	-55.12
3388.52	-56.03
3391.49	-55.85
3394.458	-54.94
3397.424	-54.94
3400.387	-55.85
3403.348	-55.4
3406.307	-55.58
3409.263	-55.22
3412.217	-55.22
3415.168	-55.58
3418.118	-55.67
3421.065	-55.4
3424.009	-55.67
3426.951	-55.85
3429.891	-55.76
3432.829	-55.4
3435.764	-55.85
3438.697	-56.49
3441.628	-56.76
3444.557	-57.12
3447.483	-57.22
3450.407	-57.22
3453.328	-57.58
3456.247	-57.58
3459.164	-57.67
3462.079	-57.85
3464.991	-58.22
3467.902	-57.76
3470.809	-56.76
3473.715	-56.94
3476.618	-57.22
3479.519	-57.31
3482.418	-57.4
3485.315	-57.03
3488.209	-57.67
3491.101	-57.76
3493.99	-57.22
3496.878	-56.94
3499.763	-57.03
3502.646	-57.22
3505.527	-57.03
3508.405	-57.22
3511.281	-56.76
3514.155	-56.4
3517.027	-56.58
3519.897	-56.03
3522.764	-55.85
3525.629	-56.4
3528.492	-56.49
3531.352	-56.03
3534.211	-55.76
3537.067	-55.67
3539.921	-55.12
3542.773	-56.03
3545.622	-56.4
3548.469	-55.94
3551.315	-56.12
3554.157	-56.22
3556.998	-56.58
3559.837	-56.31
3562.673	-57.03
3565.507	-57.12
3568.339	-57.49
3571.169	-57.85
3573.996	-57.85
3576.822	-58.4
3579.645	-59.03
3582.466	-59.12
3585.285	-59.76
3588.101	-59.67
3590.916	-60.85
3593.728	-60.31
3596.538	-60.94
3599.346	-60.85
3602.152	-60.94
3604.956	-60.76
3607.757	-60.12
3610.556	-60.22
3613.354	-59.85
3616.149	-59.58
3618.942	-58.94
3621.732	-57.85
3624.521	-57.94
3627.307	-57.94
3630.092	-57.85
3632.874	-58.03
3635.654	-57.85
3638.432	-57.49
3641.208	-57.58
3643.982	-58.03
3646.753	-57.76
3649.523	-58.58
3652.29	-59.22
3655.055	-59.58
3657.818	-59.67
3660.579	-59.94
3663.338	-60.03
3666.095	-60.31
3668.849	-61.22
3671.602	-61.12
3674.352	-61.49
3677.101	-61.94
3679.847	-61.94
3682.591	-61.85
3685.333	-60.85
3688.073	-61.03
3690.811	-60.85
3693.547	-60.67
3696.281	-60.76
3699.013	-60.76
3701.742	-60.4
3704.47	-60.85
3707.195	-61.49
3709.919	-61.58
3712.64	-61.85
3715.359	-62.58
3718.076	-63.22
3720.792	-63.4
3723.505	-63.85
3726.216	-63.76
3728.925	-64.12
3731.632	-64.85
3734.336	-64.12
3737.039	-63.4
3739.74	-62.03
3742.439	-61.58
3745.136	-62.12
3747.83	-61.4
3750.523	-61.31
3753.213	-60.58
3755.902	-61.03
3758.589	-59.85
3761.273	-59.31
3763.956	-59.58
3766.636	-59.67
3769.315	-59.94
3771.991	-61.49
3774.665	-63.76
3777.338	-63.49
3780.008	-63.58
3782.677	-63.67
3785.343	-63.12
3788.007	-64.03
3790.67	-64.49
3793.33	-63.85
3795.989	-63.76
3798.645	-64.31
3801.299	-63.31
3803.952	-60.58
3806.602	-60.49
3809.251	-60.76
3811.897	-61.12
3814.542	-61.49
3817.184	-61.22
3819.825	-61.76
3822.463	-62.31
3825.1	-63.03
3827.735	-63.49
3830.367	-63.49
3832.998	-64.03
3835.627	-64.4
3838.253	-63.94
3840.878	-63.31
3843.501	-63.22
3846.122	-63.22
3848.741	-61.94
3851.358	-61.67
3853.973	-59.85
3856.586	-58.31
3859.197	-56.22
3861.806	-53.22
3864.414	-47.49
3867.019	-39.22
3869.622	-27.67
3872.224	-13.94
3874.823	-3.76
3877.421	1.97
3880.016	5.24
3882.61	5.69
3885.202	5.42
3887.792	4.06
3890.38	1.69
3892.966	-4.03
3895.55	-12.31
3898.132	-24.12
3900.713	-37.85
3903.291	-48.31
3905.868	-54.94
3908.442	-58.67
3911.015	-60.31
3913.586	-61.31
3916.155	-62.03
3918.722	-62.58
3921.287	-62.76
3923.85	-63.85
3926.411	-63.94
3928.971	-65.03
3931.528	-64.58
3934.084	-64.4
3936.638	-64.49
3939.19	-65.12
3941.74	-65.22
3944.288	-64.94
3946.834	-63.85
3949.378	-63.31
3951.921	-62.31
3954.462	-62.03
3957	-60.12
3959.537	-60.31
3962.072	-59.67
3964.606	-59.03
3967.137	-58.03
3969.667	-57.58
3972.194	-57.49
3974.72	-58.4
3977.244	-58.22
3979.766	-57.85
3982.286	-57.49
3984.805	-58.31
3987.321	-58.4
3989.836	-58.76
3992.349	-59.12
3994.86	-59.4
3997.369	-59.58
3999.877	-59.58
4002.382	-60.03
4004.886	-60.67
4007.388	-61.4
4009.888	-61.94
4012.386	-62.4
4014.883	-62.76
4017.377	-63.22
4019.87	-63.67
4022.361	-63.76
4024.85	-64.22
4027.338	-63.85
4029.823	-63.85
4032.307	-63.85
4034.789	-63.4
4037.269	-62.94
4039.747	-62.03
4042.224	-61.12
4044.699	-60.49
4047.172	-59.76
4049.643	-59.58
4052.112	-59.12
4054.58	-59.58
4057.046	-59.12
4059.51	-58.49
4061.972	-58.49
4064.432	-58.58
4066.891	-58.76
4069.348	-58.76
4071.803	-58.94
4074.256	-59.22
4076.708	-59.31
4079.158	-59.76
4081.606	-60.12
4084.052	-60.58
4086.497	-60.76
4088.939	-61.03
4091.38	-61.49
4093.819	-50.85
4096.257	-40.85
4098.693	-31.22
4101.127	-21.31
4103.559	-12.03
4105.989	-3.85
4108.418	-4.03
4110.845	-4.13
4113.27	-5.22
4115.694	-5.76
4118.115	-5.76
4120.535	-16.58
4122.954	-27.4
4125.37	-37.22
4127.785	-47.49
4130.198	-57.12
4132.609	-65.53
4135.019	-65.35
4137.427	-65
4139.833	-64.41
4142.237	-63.79