File: Data/Raman/2017-08-24 - Glass, alluminum 108/Aluminum II [full set]/Alu-EC-control 30s,I=1, BC=3, 1sta _RamanShift_2.txt
Data from Alu-control 30s,I=1, BC=3, 1sta _RamanShift_2.txt Node

Date: Thu Aug 24 13:30:51 IDT 2017
User: aro
Spectrometer: QEPB0276
Trigger mode: 0
Integration Time (sec): 3.000000E1
Scans to average: 1
Electric dark correction enabled: true
Nonlinearity correction enabled: false
Boxcar width: 5
XAxis mode: Raman Shifts
Number of Pixels in Spectrum: 1044
>>>>>Begin Spectral Data<<<<<
160.701	169.58
166.742	260.04
172.777	353.12
178.805	434.97
184.826	502.95
190.841	558.66
196.849	658.11
202.85	760.48
208.845	863.93
214.833	963.11
220.815	1052.66
226.789	1119.84
232.758	1162.57
238.719	1189.39
244.674	1210.3
250.623	1230.93
256.565	1253.75
262.5	1280.57
268.429	1303.48
274.351	1326.48
280.267	1351.3
286.176	1371.84
292.079	1394.39
297.975	1417.2
303.865	1437.39
309.748	1458.3
315.625	1478.3
321.495	1496.57
327.359	1513.02
333.217	1531.57
339.068	1551.11
344.912	1573.3
350.751	1607.84
356.583	1648.2
362.408	1679.57
368.227	1701.57
374.04	1723.84
379.847	1759.75
385.647	1828.3
391.44	1933.02
397.228	2038.39
403.009	2101.11
408.784	2121.39
414.553	2120.39
420.315	2103.66
426.071	2089.48
431.821	2082.3
437.565	2069.3
443.302	2038.66
449.033	1970.57
454.758	1863.39
460.477	1752.57
466.189	1679.57
471.896	1634.39
477.596	1586.11
483.29	1531.2
488.978	1468.57
494.66	1397.93
500.335	1324.3
506.005	1246.39
511.668	1169.2
517.325	1089.11
522.977	1009.48
528.622	927.02
534.261	852.84
539.894	791.66
545.521	743.48
551.141	707.84
556.756	683.75
562.365	662.93
567.968	649.93
573.565	639.75
579.155	633.66
584.74	627.11
590.319	623.02
595.892	617.93
601.459	611.66
607.02	608.75
612.575	614.48
618.124	630.84
623.667	655.48
629.204	670.02
634.735	670.84
640.261	663.48
645.781	652.93
651.294	642.39
656.802	632.39
662.304	624.39
667.8	613.3
673.29	591.75
678.775	557.75
684.254	518.2
689.726	487.02
695.193	471.2
700.655	462.02
706.11	457.2
711.56	455.75
717.004	457.66
722.442	462.11
727.874	469.11
733.301	476.75
738.722	481.3
744.137	485.11
749.547	491.66
754.951	500.2
760.349	509.48
765.741	520.84
771.128	531.02
776.509	537.57
781.885	541.2
787.254	541.75
792.618	541.11
797.977	543.2
803.33	546.02
808.677	544.66
814.019	539.39
819.355	531.93
824.686	521.2
830.011	507.84
835.33	494.02
840.644	478.02
845.952	462.39
851.255	447.02
856.552	432.39
861.844	417.57
867.13	404.93
872.41	392.02
877.686	380.75
882.955	369.48
888.219	360.75
893.478	353.66
898.731	348.39
903.979	344.3
909.221	341.3
914.458	339.2
919.69	336.66
924.916	334.93
930.136	335.02
935.351	334.48
940.561	334.48
945.766	333.84
950.965	332.3
956.158	331.11
961.347	328.84
966.529	327.2
971.707	324.93
976.879	324.3
982.046	322.2
987.208	320.93
992.364	320.75
997.515	321.39
1002.66	323.2
1007.801	326.75
1012.936	329.93
1018.066	333.02
1023.19	337.39
1028.309	341.02
1033.423	344.02
1038.532	347.66
1043.636	350.2
1048.734	351.57
1053.827	353.84
1058.915	354.02
1063.998	352.84
1069.075	352.02
1074.147	351.48
1079.214	348.3
1084.276	344.3
1089.333	339.48
1094.385	335.3
1099.431	330.66
1104.472	325.3
1109.509	319.2
1114.54	313.93
1119.565	310.11
1124.586	305.66
1129.602	302.39
1134.613	300.2
1139.618	300.84
1144.619	301.93
1149.614	303.02
1154.604	303.66
1159.589	305.39
1164.57	307.02
1169.545	308.75
1174.515	309.11
1179.48	310.75
1184.44	310.57
1189.395	311.48
1194.345	311.2
1199.29	309.75
1204.23	309.11
1209.165	309.2
1214.095	309.48
1219.021	309.11
1223.941	308.02
1228.856	306.3
1233.766	303.02
1238.672	300.11
1243.572	296.11
1248.467	291.3
1253.358	286.93
1258.244	281.66
1263.124	277.3
1268	272.84
1272.871	268.93
1277.737	266.84
1282.599	265.84
1287.455	265.57
1292.306	265.57
1297.153	265.84
1301.995	266.84
1306.832	269.48
1311.664	271.11
1316.491	271.57
1321.314	271.93
1326.132	271.93
1330.945	270.84
1335.753	269.2
1340.556	268.02
1345.354	266.48
1350.148	264.57
1354.937	263.3
1359.722	260.39
1364.501	257.84
1369.276	255.66
1374.046	253.2
1378.811	250.39
1383.572	246.93
1388.327	243.93
1393.079	240.84
1397.825	237.84
1402.567	236.3
1407.304	233.3
1412.036	231.39
1416.764	230.84
1421.487	230.3
1426.205	230.48
1430.919	230.93
1435.628	232.2
1440.333	234.11
1445.032	235.48
1449.727	237.3
1454.418	237.48
1459.104	239.48
1463.785	240.75
1468.462	241.02
1473.134	241.75
1477.802	242.66
1482.465	244.48
1487.123	246.48
1491.777	247.02
1496.426	248.02
1501.071	248.93
1505.711	249.93
1510.347	249.39
1514.978	248.93
1519.604	248.2
1524.226	247.02
1528.844	246.48
1533.457	249.84
1538.065	254.02
1542.669	255.93
1547.269	253.02
1551.864	250.2
1556.454	246.57
1561.041	244.02
1565.622	241.75
1570.199	239.66
1574.772	237.93
1579.34	234.57
1583.904	227.11
1588.464	218.66
1593.019	211.75
1597.569	209.93
1602.115	208.48
1606.657	208.02
1611.195	206.75
1615.728	206.02
1620.256	205.66
1624.78	204.39
1629.3	204.66
1633.816	204.11
1638.327	204.39
1642.834	205.84
1647.336	207.11
1651.834	208.39
1656.328	209.48
1660.817	211.48
1665.302	213.75
1669.783	214.48
1674.259	215.75
1678.732	215.93
1683.199	216.2
1687.663	215.02
1692.122	213.75
1696.577	212.2
1701.028	209.11
1705.474	206.39
1709.917	202.93
1714.355	199.2
1718.788	195.3
1723.218	191.48
1727.643	187.11
1732.064	182.75
1736.481	179.02
1740.893	174.66
1745.301	171.02
1749.705	168.3
1754.105	165.39
1758.501	164.48
1762.893	161.75
1767.28	160.66
1771.663	159.75
1776.042	159.02
1780.417	157.75
1784.787	157.3
1789.154	158.02
1793.516	157.11
1797.874	156.3
1802.228	154.75
1806.578	151.84
1810.924	149.57
1815.266	147.48
1819.603	144.39
1823.937	142.39
1828.266	140.75
1832.591	138.2
1836.913	135.48
1841.23	133.75
1845.543	132.48
1849.852	132.57
1854.156	131.75
1858.457	132.02
1862.754	131.57
1867.047	132.2
1871.335	131.75
1875.62	132.57
1879.9	133.2
1884.177	134.11
1888.449	134.66
1892.718	136.02
1896.982	135.66
1901.243	136.3
1905.499	136.2
1909.752	137.75
1914	138.84
1918.245	140.2
1922.485	140.66
1926.722	140.75
1930.954	140.39
1935.183	140.2
1939.408	138.2
1943.628	136.93
1947.845	135.2
1952.058	133.2
1956.267	130.39
1960.472	126.2
1964.673	122.48
1968.87	118.93
1973.063	115.93
1977.252	113.02
1981.438	109.84
1985.619	107.66
1989.797	105.93
1993.971	104.2
1998.14	102.66
2002.306	101.48
2006.469	100.75
2010.627	99.75
2014.781	98.11
2018.932	97.11
2023.078	95.66
2027.221	94.66
2031.36	93.93
2035.495	93.3
2039.627	92.57
2043.754	91.57
2047.878	90.75
2051.998	92.39
2056.114	93.48
2060.226	94.48
2064.334	94.84
2068.439	96.39
2072.54	97.39
2076.637	97.66
2080.73	97.39
2084.82	97.48
2088.906	97.93
2092.988	97.11
2097.066	94.11
2101.14	92.39
2105.211	90.93
2109.278	89.66
2113.342	87.75
2117.401	86.3
2121.457	84.66
2125.509	83.3
2129.558	81.57
2133.602	79.48
2137.643	78.66
2141.681	77.75
2145.714	75.84
2149.744	74.02
2153.77	71.57
2157.793	69.93
2161.812	68.2
2165.827	66.84
2169.838	65.39
2173.846	63.57
2177.851	62.48
2181.851	60.48
2185.848	59.48
2189.841	58.11
2193.831	58.02
2197.817	58.02
2201.799	57.3
2205.778	57.11
2209.753	56.93
2213.725	56.84
2217.693	57.3
2221.657	57.75
2225.618	57.66
2229.575	56.48
2233.529	56.48
2237.479	55.93
2241.425	55.39
2245.368	54.57
2249.307	53.75
2253.243	52.57
2257.175	51.66
2261.104	50.75
2265.029	49.84
2268.95	50.11
2272.868	50.84
2276.783	50.3
2280.694	49.11
2284.601	47.93
2288.505	47.39
2292.405	46.93
2296.302	46.75
2300.195	46.66
2304.085	47.2
2307.971	49.84
2311.854	58.66
2315.734	68.39
2319.609	74.3
2323.482	74.48
2327.351	74.3
2331.216	73.3
2335.078	71.93
2338.937	70.3
2342.792	68.75
2346.643	66.3
2350.492	61.84
2354.336	50.2
2358.178	37.93
2362.015	30.93
2365.85	29.84
2369.681	28.93
2373.508	28.93
2377.333	28.3
2381.153	27.66
2384.971	27.75
2388.785	27.48
2392.595	26.57
2396.402	26.66
2400.206	26.2
2404.007	24.93
2407.804	23.66
2411.597	23.11
2415.388	22.3
2419.174	22.2
2422.958	22.2
2426.738	21.48
2430.515	21.2
2434.289	20.84
2438.059	20.11
2441.825	20.2
2445.589	20.39
2449.349	20.11
2453.106	20.02
2456.859	19.2
2460.61	18.2
2464.356	17.02
2468.1	16.11
2471.84	14.66
2475.577	14.75
2479.311	13.66
2483.041	12.75
2486.768	11.93
2490.492	11.57
2494.213	10.66
2497.93	11.57
2501.644	11.84
2505.355	12.02
2509.062	11.93
2512.766	12.3
2516.467	11.75
2520.165	11.39
2523.859	11.2
2527.551	11.11
2531.239	11.3
2534.923	11.57
2538.605	10.66
2542.283	10.11
2545.958	10.2
2549.63	10.39
2553.299	10.2
2556.964	10.3
2560.626	10.75
2564.285	10.93
2567.941	10.02
2571.594	9.93
2575.243	9.11
2578.89	8.02
2582.533	7.48
2586.173	6.75
2589.809	6.11
2593.443	5.39
2597.073	4.2
2600.701	4.11
2604.325	2.75
2607.946	2.84
2611.564	1.11
2615.178	1.02
2618.79	0.39
2622.398	-0.34
2626.004	-0.89
2629.606	-1.8
2633.205	-2.34
2636.801	-3.16
2640.394	-4.61
2643.983	-5.34
2647.57	-6.16
2651.153	-5.8
2654.734	-6.98
2658.311	-7.25
2661.885	-7.98
2665.456	-8.8
2669.025	-9.52
2672.589	-9.8
2676.151	-9.7
2679.71	-9.61
2683.266	-9.8
2686.819	-10.34
2690.368	-11.43
2693.915	-11.34
2697.458	-11.52
2700.999	-11.25
2704.536	-10.98
2708.071	-10.8
2711.602	-11.16
2715.13	-10.43
2718.656	-10.61
2722.178	-9.98
2725.697	-8.98
2729.214	-7.7
2732.727	-8.07
2736.237	-7.61
2739.744	-6.8
2743.249	-6.52
2746.75	-6.98
2750.248	-6.34
2753.743	-7.8
2757.236	-8.8
2760.725	-9.98
2764.211	-11.43
2767.695	-13.34
2771.175	-13.34
2774.652	-14.34
2778.127	-16.16
2781.598	-16.7
2785.067	-17.61
2788.532	-18.8
2791.995	-18.98
2795.455	-19.25
2798.911	-19.07
2802.365	-18.7
2805.816	-18.25
2809.264	-18.07
2812.709	-17.52
2816.151	-17.34
2819.59	-16.89
2823.026	-15.7
2826.46	-16.07
2829.89	-15.61
2833.318	-14.98
2836.742	-15.43
2840.164	-15.98
2843.583	-16.61
2846.999	-16.61
2850.412	-16.98
2853.822	-16.7
2857.229	-17.52
2860.634	-18.07
2864.035	-17.52
2867.434	-18.25
2870.83	-18.98
2874.223	-19.25
2877.613	-19.98
2881	-20.34
2884.385	-21.7
2887.766	-23.16
2891.145	-24.52
2894.521	-25.7
2897.894	-26.61
2901.264	-28.07
2904.631	-28.89
2907.996	-28.98
2911.358	-29.25
2914.717	-29.8
2918.073	-30.07
2921.426	-30.52
2924.777	-30.16
2928.124	-29.89
2931.469	-29.89
2934.811	-30.07
2938.15	-29.7
2941.487	-29.89
2944.821	-30.07
2948.152	-30.34
2951.48	-30.16
2954.805	-30.16
2958.128	-30.07
2961.447	-29.7
2964.765	-29.7
2968.079	-30.25
2971.39	-29.61
2974.699	-29.34
2978.005	-29.07
2981.308	-29.8
2984.609	-29.7
2987.907	-30.07
2991.202	-30.34
2994.494	-31.07
2997.784	-32.16
3001.07	-32.7
3004.355	-32.89
3007.636	-34.43
3010.915	-35.43
3014.191	-36.61
3017.464	-36.25
3020.734	-37.43
3024.002	-37.34
3027.267	-38.07
3030.53	-38.16
3033.789	-38.61
3037.046	-38.7
3040.301	-38.07
3043.552	-37.89
3046.801	-38.43
3050.048	-37.7
3053.291	-38.34
3056.532	-37.52
3059.771	-37.7
3063.006	-37.16
3066.239	-36.89
3069.469	-37.07
3072.697	-37.8
3075.922	-38.25
3079.144	-38.7
3082.364	-38.8
3085.581	-39.16
3088.795	-39.34
3092.007	-40.43
3095.216	-40.98
3098.423	-41.89
3101.627	-41.89
3104.828	-41.89
3108.026	-41.52
3111.222	-42.43
3114.416	-42.43
3117.607	-42.98
3120.795	-43.61
3123.98	-44.34
3127.163	-44.25
3130.344	-44.7
3133.521	-44.16
3136.696	-44.7
3139.869	-45.25
3143.039	-46.16
3146.206	-45.7
3149.371	-46.16
3152.533	-45.34
3155.693	-45.07
3158.85	-44.25
3162.005	-44.52
3165.157	-44.16
3168.306	-44.7
3171.453	-44.61
3174.597	-44.25
3177.739	-43.7
3180.878	-44.43
3184.014	-44.07
3187.149	-44.07
3190.28	-44.16
3193.409	-45.07
3196.536	-44.34
3199.659	-44.52
3202.781	-44.8
3205.9	-45.25
3209.016	-45.89
3212.13	-46.25
3215.241	-45.61
3218.35	-46.43
3221.456	-47.07
3224.56	-46.8
3227.661	-47.34
3230.76	-47.7
3233.856	-48.25
3236.95	-48.61
3240.041	-49.61
3243.13	-49.52
3246.216	-49.98
3249.3	-50.98
3252.382	-50.8
3255.46	-51.07
3258.537	-52.07
3261.611	-51.89
3264.682	-52.7
3267.751	-52.43
3270.818	-52.43
3273.882	-51.98
3276.943	-51.43
3280.002	-51.07
3283.059	-50.25
3286.113	-50.07
3289.165	-49.8
3292.214	-49.34
3295.261	-48.98
3298.306	-48.8
3301.348	-48.98
3304.387	-48.52
3307.425	-48.43
3310.459	-48.98
3313.492	-48.89
3316.521	-49.61
3319.549	-49.8
3322.574	-50.16
3325.597	-50.52
3328.617	-50.98
3331.635	-50.89
3334.65	-51.52
3337.663	-51.52
3340.674	-51.52
3343.682	-51.7
3346.688	-51.98
3349.691	-52.25
3352.692	-52.8
3355.691	-52.89
3358.687	-53.34
3361.681	-54.16
3364.673	-54.8
3367.662	-54.52
3370.649	-55.52
3373.633	-55.8
3376.615	-56.16
3379.595	-56.52
3382.572	-56.61
3385.547	-56.7
3388.52	-56.7
3391.49	-56.43
3394.458	-55.34
3397.424	-55.25
3400.387	-55.61
3403.348	-55.52
3406.307	-55.34
3409.263	-55.34
3412.217	-55.25
3415.168	-55.16
3418.118	-54.7
3421.065	-54.8
3424.009	-55.07
3426.951	-55.07
3429.891	-55.07
3432.829	-54.34
3435.764	-54.34
3438.697	-54.43
3441.628	-53.52
3444.557	-53.16
3447.483	-53.07
3450.407	-52.89
3453.328	-53.07
3456.247	-52.43
3459.164	-52.07
3462.079	-51.61
3464.991	-51.89
3467.902	-51.43
3470.809	-51.25
3473.715	-52.16
3476.618	-53.07
3479.519	-53.34
3482.418	-54.07
3485.315	-53.89
3488.209	-54.43
3491.101	-55.07
3493.99	-55.07
3496.878	-54.89
3499.763	-55.34
3502.646	-55.8
3505.527	-55.7
3508.405	-55.8
3511.281	-55.98
3514.155	-55.98
3517.027	-56.34
3519.897	-56.16
3522.764	-55.8
3525.629	-56.16
3528.492	-56.07
3531.352	-55.25
3534.211	-54.8
3537.067	-55.34
3539.921	-55.25
3542.773	-55.25
3545.622	-54.61
3548.469	-54.16
3551.315	-54.07
3554.157	-54.16
3556.998	-54.25
3559.837	-54.16
3562.673	-54.52
3565.507	-54.25
3568.339	-53.61
3571.169	-53.43
3573.996	-53.07
3576.822	-53.61
3579.645	-53.61
3582.466	-53.61
3585.285	-54.16
3588.101	-54.61
3590.916	-55.89
3593.728	-55.52
3596.538	-56.7
3599.346	-56.98
3602.152	-57.07
3604.956	-57.98
3607.757	-58.07
3610.556	-58.34
3613.354	-58.8
3616.149	-59.25
3618.942	-59.25
3621.732	-58.52
3624.521	-59.52
3627.307	-59.52
3630.092	-59.61
3632.874	-60.25
3635.654	-59.98
3638.432	-59.8
3641.208	-59.61
3643.982	-59.89
3646.753	-59.61
3649.523	-59.34
3652.29	-59.43
3655.055	-59.52
3657.818	-58.8
3660.579	-58.89
3663.338	-58.52
3666.095	-58.25
3668.849	-58.34
3671.602	-58.16
3674.352	-57.8
3677.101	-57.8
3679.847	-57.43
3682.591	-57.25
3685.333	-56.52
3688.073	-56.89
3690.811	-56.34
3693.547	-55.8
3696.281	-55.7
3699.013	-55.8
3701.742	-55.89
3704.47	-56.52
3707.195	-56.52
3709.919	-56.98
3712.64	-57.16
3715.359	-57.34
3718.076	-57.89
3720.792	-58.7
3723.505	-59.16
3726.216	-59.34
3728.925	-59.89
3731.632	-61.07
3734.336	-60.7
3737.039	-61.16
3739.74	-60.34
3742.439	-60.52
3745.136	-61.43
3747.83	-61.16
3750.523	-61.16
3753.213	-60.8
3755.902	-61.25
3758.589	-60.52
3761.273	-59.43
3763.956	-59.89
3766.636	-59.52
3769.315	-60.07
3771.991	-61.52
3774.665	-62.98
3777.338	-62.98
3780.008	-62.61
3782.677	-62.89
3785.343	-62.16
3788.007	-62.07
3790.67	-62.7
3793.33	-61.7
3795.989	-61.16
3798.645	-60.8
3801.299	-59.25
3803.952	-56.98
3806.602	-56.89
3809.251	-57.07
3811.897	-57.16
3814.542	-57.25
3817.184	-57.43
3819.825	-58.07
3822.463	-58.7
3825.1	-59.34
3827.735	-60.16
3830.367	-60.61
3832.998	-60.89
3835.627	-61.07
3838.253	-61.16
3840.878	-61.43
3843.501	-61.7
3846.122	-62.07
3848.741	-61.25
3851.358	-61.8
3853.973	-60.61
3856.586	-59.16
3859.197	-57.34
3861.806	-54.43
3864.414	-49.16
3867.019	-40.7
3869.622	-28.52
3872.224	-15.61
3874.823	-5.43
3877.421	0.48
3880.016	4.75
3882.61	5.48
3885.202	5.39
3887.792	4.57
3890.38	1.84
3892.966	-2.43
3895.55	-10.61
3898.132	-21.8
3900.713	-34.43
3903.291	-44.52
3905.868	-50.7
3908.442	-54.25
3911.015	-55.8
3913.586	-57.25
3916.155	-57.98
3918.722	-57.61
3921.287	-58.34
3923.85	-58.98
3926.411	-60.07
3928.971	-60.89
3931.528	-60.89
3934.084	-60.8
3936.638	-60.98
3939.19	-61.52
3941.74	-61.34
3944.288	-61.16
3946.834	-60.98
3949.378	-60.61
3951.921	-60.43
3954.462	-59.8
3957	-59.16
3959.537	-58.89
3962.072	-58.07
3964.606	-57.43
3967.137	-56.52
3969.667	-56.16
3972.194	-55.7
3974.72	-55.89
3977.244	-55.89
3979.766	-54.98
3982.286	-54.89
3984.805	-54.8
3987.321	-54.61
3989.836	-55.16
3992.349	-55.61
3994.86	-56.25
3997.369	-56.07
3999.877	-56.98
4002.382	-57.34
4004.886	-57.43
4007.388	-58.52
4009.888	-59.07
4012.386	-59.07
4014.883	-59.7
4017.377	-59.98
4019.87	-60.25
4022.361	-60.34
4024.85	-60.8
4027.338	-60.34
4029.823	-60.61
4032.307	-60.7
4034.789	-60.43
4037.269	-59.89
4039.747	-59.7
4042.224	-59.7
4044.699	-59.52
4047.172	-59.07
4049.643	-58.7
4052.112	-57.98
4054.58	-58.43
4057.046	-57.89
4059.51	-57.61
4061.972	-57.25
4064.432	-57.52
4066.891	-57.8
4069.348	-57.52
4071.803	-57.61
4074.256	-57.7
4076.708	-57.61
4079.158	-58.16
4081.606	-57.61
4084.052	-58.16
4086.497	-58.43
4088.939	-58.7
4091.38	-58.7
4093.819	-47.98
4096.257	-37.61
4098.693	-27.98
4101.127	-18.34
4103.559	-9.7
4105.989	-1.34
4108.418	-1.7
4110.845	-2.61
4113.27	-2.98
4115.694	-2.98
4118.115	-2.52
4120.535	-13.07
4122.954	-23.7
4125.37	-33.61
4127.785	-43.61
4130.198	-52.61
4132.609	-61.35
4135.019	-61.36
4137.427	-60.25
4139.833	-60.11
4142.237	-59.92