File: Data/Raman/2017-08-24 - Glass, alluminum 108/Aluminum II [full set]/Alu-BS-108 30s,I=1, BC=3, 1sta _RamanShift_2.txt
Data from Alu-BS-108 30s,I=1, BC=3, 1sta _RamanShift_2.txt Node

Date: Thu Aug 24 13:52:21 IDT 2017
User: aro
Spectrometer: QEPB0276
Trigger mode: 0
Integration Time (sec): 3.000000E1
Scans to average: 1
Electric dark correction enabled: true
Nonlinearity correction enabled: false
Boxcar width: 5
XAxis mode: Raman Shifts
Number of Pixels in Spectrum: 1044
>>>>>Begin Spectral Data<<<<<
160.701	182.88
166.742	295.66
172.777	415.75
178.805	521.15
184.826	608.67
190.841	681.56
196.849	811.01
202.85	943.56
208.845	1076.83
214.833	1205.56
220.815	1321.47
226.789	1411.92
232.758	1469.19
238.719	1503.47
244.674	1530.83
250.623	1557.92
256.565	1584.83
262.5	1613.65
268.429	1641.65
274.351	1669.28
280.267	1696.47
286.176	1718.47
292.079	1741.83
297.975	1764.92
303.865	1785.56
309.748	1806.1
315.625	1824.56
321.495	1841.65
327.359	1857.38
333.217	1870.1
339.068	1885.1
344.912	1905.56
350.751	1936.01
356.583	1970.38
362.408	1997.92
368.227	2019.01
374.04	2037.28
379.847	2069.01
385.647	2131.1
391.44	2223.38
397.228	2319.56
403.009	2373.19
408.784	2388.47
414.553	2386.28
420.315	2369.92
426.071	2357.83
431.821	2348.56
437.565	2335.1
443.302	2305.38
449.033	2240.56
454.758	2143.56
460.477	2041.28
466.189	1977.1
471.896	1935.47
477.596	1890.92
483.29	1841.83
488.978	1782.01
494.66	1715.74
500.335	1647.65
506.005	1577.56
511.668	1509.28
517.325	1437.19
522.977	1364.47
528.622	1288.83
534.261	1221.56
539.894	1165.56
545.521	1121.1
551.141	1089.65
556.756	1067.19
562.365	1050.1
567.968	1035.56
573.565	1025.74
579.155	1017.47
584.74	1010.01
590.319	1004.65
595.892	997.74
601.459	990.74
607.02	985.83
612.575	987.56
618.124	1000.47
623.667	1020.65
629.204	1031.74
634.735	1029.56
640.261	1020.28
645.781	1009.83
651.294	999.92
656.802	989.92
662.304	980.01
667.8	967.1
673.29	946.83
678.775	915.38
684.254	876.92
689.726	848.74
695.193	832.47
700.655	826.01
706.11	821.28
711.56	817.28
717.004	816.74
722.442	821.19
727.874	827.38
733.301	833.65
738.722	838.1
744.137	842.83
749.547	847.38
754.951	855.38
760.349	861.56
765.741	870.1
771.128	877.47
776.509	884.74
781.885	886.38
787.254	883.83
792.618	881.65
797.977	881.65
803.33	880.01
808.677	877.65
814.019	871.01
819.355	863.19
824.686	852.1
830.011	840.74
835.33	825.28
840.644	810.47
845.952	797.56
851.255	783.65
856.552	769.56
861.844	756.56
867.13	746.47
872.41	733.74
877.686	721.19
882.955	710.92
888.219	702.01
893.478	693.56
898.731	686.56
903.979	682.56
909.221	678.74
914.458	676.01
919.69	673.01
924.916	669.56
930.136	667.92
935.351	666.74
940.561	664.01
945.766	661.19
950.965	659.28
956.158	655.01
961.347	650.92
966.529	646.28
971.707	641.65
976.879	637.74
982.046	633.28
987.208	632.19
992.364	630.83
997.515	631.38
1002.66	633.38
1007.801	634.92
1012.936	638.01
1018.066	640.1
1023.19	643.56
1028.309	645.65
1033.423	647.38
1038.532	647.92
1043.636	648.28
1048.734	648.92
1053.827	647.74
1058.915	646.1
1063.998	644.74
1069.075	643.1
1074.147	640.83
1079.214	639.56
1084.276	636.92
1089.333	634.38
1094.385	630.74
1099.431	625.01
1104.472	619.83
1109.509	614.1
1114.54	608.01
1119.565	601.83
1124.586	595.83
1129.602	591.47
1134.613	586.28
1139.618	583.74
1144.619	581.1
1149.614	579.47
1154.604	579.74
1159.589	578.19
1164.57	577.56
1169.545	576.65
1174.515	576.28
1179.48	577.47
1184.44	576.47
1189.395	575.65
1194.345	574.38
1199.29	573.01
1204.23	573.65
1209.165	572.19
1214.095	573.19
1219.021	572.74
1223.941	570.47
1228.856	569.19
1233.766	564.38
1238.672	560.83
1243.572	554.92
1248.467	548.19
1253.358	541.01
1258.244	533.28
1263.124	526.56
1268	519.38
1272.871	514.19
1277.737	511.38
1282.599	509.47
1287.455	509.56
1292.306	508.47
1297.153	509.37
1301.995	510.56
1306.832	512.28
1311.664	512.47
1316.491	511.56
1321.314	510.47
1326.132	508.92
1330.945	505.19
1335.753	500.83
1340.556	495.56
1345.354	490.28
1350.148	484.65
1354.937	479.28
1359.722	473.92
1364.501	469.19
1369.276	464.56
1374.046	459.1
1378.811	453.83
1383.572	449.47
1388.327	443.19
1393.079	439.38
1397.825	436.01
1402.567	433.56
1407.304	430.47
1412.036	429.1
1416.764	428.47
1421.487	428.65
1426.205	429.65
1430.919	432.1
1435.628	448.38
1440.333	453.01
1445.032	454.01
1449.727	455.83
1454.418	456.38
1459.104	457.74
1463.785	457.28
1468.462	456.74
1473.134	457.1
1477.802	456.92
1482.465	455.28
1487.123	440.38
1491.777	439.28
1496.426	440.74
1501.071	439.47
1505.711	438.65
1510.347	435.56
1514.978	434.28
1519.604	431.56
1524.226	427.19
1528.844	424.47
1533.457	424.83
1538.065	426.83
1542.669	425.83
1547.269	421.38
1551.864	416.19
1556.454	411.56
1561.041	409.19
1565.622	406.01
1570.199	403.1
1574.772	400.47
1579.34	396.56
1583.904	389.01
1588.464	380.19
1593.019	372.01
1597.569	366.47
1602.115	364.74
1606.657	362.1
1611.195	359.47
1615.728	357.01
1620.256	355.74
1624.78	353.65
1629.3	353.56
1633.816	353.19
1638.327	353.74
1642.834	354.83
1647.336	357.65
1651.834	358.47
1656.328	359.74
1660.817	361.28
1665.302	362.47
1669.783	363.01
1674.259	362.92
1678.732	361.38
1683.199	360.01
1687.663	356.74
1692.122	354.19
1696.577	349.83
1701.028	346.1
1705.474	342.1
1709.917	337.92
1714.355	332.56
1718.788	326.74
1723.218	322.1
1727.643	318.1
1732.064	312.92
1736.481	307.47
1740.893	302.92
1745.301	298.74
1749.705	294.28
1754.105	290.01
1758.501	286.19
1762.893	284.19
1767.28	282.56
1771.663	281.74
1776.042	279.74
1780.417	279.28
1784.787	278.92
1789.154	276.74
1793.516	275.74
1797.874	273.47
1802.228	271.74
1806.578	268.74
1810.924	265.1
1815.266	261.56
1819.603	256.74
1823.937	252.74
1828.266	249.28
1832.591	246.38
1836.913	244.65
1841.23	242.47
1845.543	241.92
1849.852	241.01
1854.156	241.01
1858.457	240.92
1862.754	240.92
1867.047	242.19
1871.335	243.1
1875.62	243.01
1879.9	244.65
1884.177	244.38
1888.449	244.28
1892.718	244.47
1896.982	244.65
1901.243	244.92
1905.499	244.92
1909.752	245.74
1914	245.92
1918.245	246.19
1922.485	247.1
1926.722	245.56
1930.954	245.47
1935.183	244.65
1939.408	243.1
1943.628	241.38
1947.845	238.37
1952.058	235.01
1956.267	231.1
1960.472	226.56
1964.673	221.47
1968.87	215.83
1973.063	211.38
1977.252	206.65
1981.438	202.38
1985.619	199.1
1989.797	195.92
1993.971	194.47
1998.14	191.74
2002.306	190.1
2006.469	188.56
2010.627	186.56
2014.781	185.28
2018.932	183.1
2023.078	182.01
2027.221	180.19
2031.36	177.74
2035.495	176.56
2039.627	173.83
2043.754	172.83
2047.878	172.28
2051.998	173.01
2056.114	173.74
2060.226	174.1
2064.334	174.47
2068.439	175.19
2072.54	175.56
2076.637	176.56
2080.73	175.83
2084.82	175.92
2088.906	175.83
2092.988	174.56
2097.066	171.83
2101.14	170.1
2105.211	167.47
2109.278	165.74
2113.342	163.01
2117.401	161.92
2121.457	159.56
2125.509	157.01
2129.558	154.92
2133.602	152.19
2137.643	149.83
2141.681	148.74
2145.714	146.28
2149.744	144.47
2153.77	142.01
2157.793	140.19
2161.812	137.28
2165.827	135.1
2169.838	134.19
2173.846	132.47
2177.851	131.1
2181.851	129.38
2185.848	126.74
2189.841	124.47
2193.831	123.83
2197.817	123.56
2201.799	122.37
2205.778	121.92
2209.753	121.1
2213.725	119.56
2217.693	119.38
2221.657	119.19
2225.618	118.56
2229.575	117.38
2233.529	118.1
2237.479	116.83
2241.425	115.74
2245.368	114.65
2249.307	114.01
2253.243	113.28
2257.175	112.74
2261.104	110.47
2265.029	108.83
2268.95	107.47
2272.868	107.28
2276.783	105.92
2280.694	104.56
2284.601	103.28
2288.505	102.56
2292.405	100.83
2296.302	100.19
2300.195	99.83
2304.085	100.19
2307.971	102.56
2311.854	110.92
2315.734	120.1
2319.609	124.92
2323.482	125.1
2327.351	124.01
2331.216	122.56
2335.078	121.38
2338.937	119.19
2342.792	116.47
2346.643	113.74
2350.492	109.38
2354.336	98.56
2358.178	87.19
2362.015	80.56
2365.85	79.65
2369.681	78.19
2373.508	77.38
2377.333	76.28
2381.153	75.74
2384.971	75.83
2388.785	75.65
2392.595	75.56
2396.402	74.92
2400.206	74.19
2404.007	73.56
2407.804	70.56
2411.597	71.47
2415.388	71.38
2419.174	71.19
2422.958	71.01
2426.738	70.38
2430.515	69.92
2434.289	68.92
2438.059	68.1
2441.825	67.28
2445.589	66.28
2449.349	68.01
2453.106	66.28
2456.859	66.01
2460.61	65.56
2464.356	64.38
2468.1	63.92
2471.84	62.74
2475.577	61.65
2479.311	61.28
2483.041	60.83
2486.768	59.83
2490.492	58.19
2494.213	57.74
2497.93	57.92
2501.644	57.74
2505.355	57.1
2509.062	56.1
2512.766	55.92
2516.467	56.01
2520.165	55.28
2523.859	55.19
2527.551	55.47
2531.239	54.83
2534.923	54.74
2538.605	52.56
2542.283	52.01
2545.958	52.92
2549.63	52.65
2553.299	53.01
2556.964	52.47
2560.626	53.19
2564.285	52.92
2567.941	52.65
2571.594	52.47
2575.243	51.83
2578.89	52.01
2582.533	51.28
2586.173	49.83
2589.809	50.19
2593.443	49.1
2597.073	48.38
2600.701	46.74
2604.325	45.19
2607.946	43.19
2611.564	42.19
2615.178	40.56
2618.79	38.38
2622.398	36.65
2626.004	35.28
2629.606	32.83
2633.205	31.74
2636.801	30.47
2640.394	29.1
2643.983	27.74
2647.57	27.74
2651.153	27.47
2654.734	27.28
2658.311	27.01
2661.885	26.19
2665.456	25.56
2669.025	25.56
2672.589	24.56
2676.151	23.83
2679.71	23.83
2683.266	24.19
2686.819	22.92
2690.368	21.83
2693.915	20.83
2697.458	20.65
2700.999	21.19
2704.536	21.19
2708.071	19.92
2711.602	19.56
2715.13	19.56
2718.656	18.83
2722.178	18.01
2725.697	18.65
2729.214	18.47
2732.727	18.74
2736.237	18.92
2739.744	18.19
2743.249	17.83
2746.75	17.28
2750.248	17.28
2753.743	16.38
2757.236	15.83
2760.725	15.1
2764.211	13.47
2767.695	12.65
2771.175	11.47
2774.652	10.19
2778.127	9.38
2781.598	9.1
2785.067	9.28
2788.532	9.01
2791.995	9.1
2795.455	8.65
2798.911	8.74
2802.365	9.1
2805.816	9.56
2809.264	9.83
2812.709	9.74
2816.151	9.19
2819.59	8.74
2823.026	9.28
2826.46	8.38
2829.89	8.01
2833.318	8.1
2836.742	7.74
2840.164	6.56
2843.583	5.74
2846.999	5.19
2850.412	5.01
2853.822	5.38
2857.229	4.92
2860.634	3.56
2864.035	3.74
2867.434	3.19
2870.83	2.65
2874.223	1.74
2877.613	1.47
2881	0.83
2884.385	0.38
2887.766	-0.62
2891.145	-1.99
2894.521	-2.72
2897.894	-2.9
2901.264	-3.99
2904.631	-4.44
2907.996	-4.72
2911.358	-4.81
2914.717	-5.26
2918.073	-6.44
2921.426	-7.08
2924.777	-7.17
2928.124	-7.35
2931.469	-8.08
2934.811	-8.81
2938.15	-9.08
2941.487	-9.44
2944.821	-9.99
2948.152	-10.62
2951.48	-10.99
2954.805	-10.9
2958.128	-11.26
2961.447	-11.17
2964.765	-11.08
2968.079	-11.35
2971.39	-10.81
2974.699	-10.72
2978.005	-11.08
2981.308	-11.62
2984.609	-11.35
2987.907	-11.62
2991.202	-11.81
2994.494	-12.35
2997.784	-12.99
3001.07	-13.44
3004.355	-13.35
3007.636	-15.17
3010.915	-16.53
3014.191	-17.44
3017.464	-17.44
3020.734	-18.35
3024.002	-18.81
3027.267	-19.62
3030.53	-19.35
3033.789	-20.53
3037.046	-20.99
3040.301	-21.17
3043.552	-20.99
3046.801	-20.9
3050.048	-20.44
3053.291	-20.9
3056.532	-20.53
3059.771	-20.08
3063.006	-19.35
3066.239	-19.9
3069.469	-19.44
3072.697	-19.9
3075.922	-19.9
3079.144	-19.53
3082.364	-20.08
3085.581	-20.53
3088.795	-20.9
3092.007	-21.62
3095.216	-22.17
3098.423	-22.81
3101.627	-22.72
3104.828	-22.62
3108.026	-22.35
3111.222	-23.62
3114.416	-24.17
3117.607	-24.44
3120.795	-25.53
3123.98	-26.9
3127.163	-27.53
3130.344	-28.44
3133.521	-27.9
3136.696	-29.17
3139.869	-30.08
3143.039	-30.99
3146.206	-30.17
3149.371	-30.62
3152.533	-30.26
3155.693	-29.99
3158.85	-28.62
3162.005	-29.35
3165.157	-28.99
3168.306	-29.81
3171.453	-28.99
3174.597	-28.62
3177.739	-28.53
3180.878	-29.81
3184.014	-29.81
3187.149	-29.35
3190.28	-29.17
3193.409	-29.99
3196.536	-28.72
3199.659	-28.44
3202.781	-28.9
3205.9	-29.26
3209.016	-29.72
3212.13	-29.72
3215.241	-29.26
3218.35	-29.26
3221.456	-30.26
3224.56	-30.35
3227.661	-30.9
3230.76	-31.44
3233.856	-32.9
3236.95	-33.44
3240.041	-34.53
3243.13	-34.62
3246.216	-35.26
3249.3	-35.72
3252.382	-36.08
3255.46	-36.62
3258.537	-36.99
3261.611	-36.99
3264.682	-37.26
3267.751	-36.08
3270.818	-36.26
3273.882	-36.17
3276.943	-36.44
3280.002	-35.72
3283.059	-35.53
3286.113	-35.44
3289.165	-34.44
3292.214	-34.53
3295.261	-34.17
3298.306	-34.53
3301.348	-34.9
3304.387	-34.53
3307.425	-33.99
3310.459	-34.17
3313.492	-34.81
3316.521	-35.17
3319.549	-35.08
3322.574	-35.72
3325.597	-35.9
3328.617	-36.44
3331.635	-36.72
3334.65	-37.44
3337.663	-37.26
3340.674	-37.72
3343.682	-38.17
3346.688	-38.17
3349.691	-38.72
3352.692	-39.17
3355.691	-39.44
3358.687	-40.17
3361.681	-40.99
3364.673	-41.35
3367.662	-40.99
3370.649	-41.72
3373.633	-41.99
3376.615	-42.08
3379.595	-42.08
3382.572	-41.72
3385.547	-42.08
3388.52	-42.53
3391.49	-41.99
3394.458	-40.99
3397.424	-40.81
3400.387	-41.62
3403.348	-41.44
3406.307	-41.44
3409.263	-41.08
3412.217	-41.08
3415.168	-41.35
3418.118	-40.81
3421.065	-40.81
3424.009	-40.9
3426.951	-40.62
3429.891	-39.99
3432.829	-39.26
3435.764	-39.53
3438.697	-39.35
3441.628	-39.26
3444.557	-39.08
3447.483	-38.53
3450.407	-38.81
3453.328	-38.62
3456.247	-38.08
3459.164	-38.17
3462.079	-38.17
3464.991	-38.72
3467.902	-38.72
3470.809	-38.99
3473.715	-39.62
3476.618	-40.72
3479.519	-41.44
3482.418	-41.99
3485.315	-42.08
3488.209	-43.17
3491.101	-43.81
3493.99	-44.08
3496.878	-43.62
3499.763	-43.62
3502.646	-43.53
3505.527	-43.08
3508.405	-43.17
3511.281	-42.99
3514.155	-42.81
3517.027	-42.62
3519.897	-42.26
3522.764	-41.62
3525.629	-41.81
3528.492	-41.9
3531.352	-41.44
3534.211	-41.08
3537.067	-41.44
3539.921	-40.72
3542.773	-40.9
3545.622	-41.17
3548.469	-40.99
3551.315	-41.26
3554.157	-41.81
3556.998	-42.17
3559.837	-42.26
3562.673	-43.08
3565.507	-43.08
3568.339	-42.99
3571.169	-43.72
3573.996	-43.81
3576.822	-44.17
3579.645	-44.53
3582.466	-44.26
3585.285	-44.9
3588.101	-44.81
3590.916	-45.17
3593.728	-44.35
3596.538	-44.81
3599.346	-45.08
3602.152	-44.81
3604.956	-44.99
3607.757	-44.9
3610.556	-45.44
3613.354	-44.99
3616.149	-44.62
3618.942	-44.35
3621.732	-43.9
3624.521	-44.62
3627.307	-44.81
3630.092	-44.62
3632.874	-44.62
3635.654	-44.35
3638.432	-43.44
3641.208	-42.99
3643.982	-43.9
3646.753	-43.35
3649.523	-44.17
3652.29	-44.9
3655.055	-45.26
3657.818	-45.17
3660.579	-45.44
3663.338	-46.17
3666.095	-46.53
3668.849	-47.44
3671.602	-47.81
3674.352	-47.53
3677.101	-48.81
3679.847	-48.35
3682.591	-47.99
3685.333	-47.26
3688.073	-47.62
3690.811	-47.26
3693.547	-46.44
3696.281	-45.99
3699.013	-46.08
3701.742	-45.53
3704.47	-46.17
3707.195	-45.44
3709.919	-45.72
3712.64	-45.72
3715.359	-45.26
3718.076	-45.08
3720.792	-45.72
3723.505	-45.72
3726.216	-46.08
3728.925	-45.99
3731.632	-46.35
3734.336	-45.72
3737.039	-45.81
3739.74	-45.08
3742.439	-44.9
3745.136	-46.08
3747.83	-46.35
3750.523	-45.99
3753.213	-45.9
3755.902	-46.17
3758.589	-45.81
3761.273	-45.72
3763.956	-46.35
3766.636	-46.53
3769.315	-46.9
3771.991	-48.99
3774.665	-50.99
3777.338	-50.81
3780.008	-50.72
3782.677	-50.9
3785.343	-50.26
3788.007	-50.26
3790.67	-50.44
3793.33	-49.53
3795.989	-48.72
3798.645	-48.26
3801.299	-46.53
3803.952	-44.08
3806.602	-43.99
3809.251	-43.99
3811.897	-44.08
3814.542	-44.26
3817.184	-44.26
3819.825	-44.62
3822.463	-44.72
3825.1	-45.53
3827.735	-46.44
3830.367	-46.81
3832.998	-46.72
3835.627	-46.9
3838.253	-47.17
3840.878	-47.9
3843.501	-47.99
3846.122	-48.44
3848.741	-48.35
3851.358	-49.26
3853.973	-48.72
3856.586	-47.81
3859.197	-46.81
3861.806	-45.53
3864.414	-42.62
3867.019	-37.08
3869.622	-29.99
3872.224	-22.99
3874.823	-17.35
3877.421	-13.35
3880.016	-10.9
3882.61	-10.26
3885.202	-10.17
3887.792	-10.53
3890.38	-11.99
3892.966	-14.72
3895.55	-19.72
3898.132	-25.99
3900.713	-32.81
3903.291	-38.08
3905.868	-42.17
3908.442	-44.35
3911.015	-45.35
3913.586	-46.17
3916.155	-46.53
3918.722	-46.26
3921.287	-46.44
3923.85	-47.17
3926.411	-46.99
3928.971	-48.26
3931.528	-48.72
3934.084	-48.53
3936.638	-48.35
3939.19	-48.81
3941.74	-48.62
3944.288	-48.72
3946.834	-48.53
3949.378	-48.08
3951.921	-47.17
3954.462	-47.26
3957	-45.81
3959.537	-44.99
3962.072	-44.17
3964.606	-43.99
3967.137	-42.9
3969.667	-42.35
3972.194	-41.81
3974.72	-41.9
3977.244	-42.08
3979.766	-41.9
3982.286	-41.9
3984.805	-42.08
3987.321	-42.53
3989.836	-43.17
3992.349	-42.99
3994.86	-43.72
3997.369	-44.08
3999.877	-44.53
4002.382	-45.26
4004.886	-45.35
4007.388	-46.17
4009.888	-46.72
4012.386	-47.17
4014.883	-47.62
4017.377	-47.35
4019.87	-48.08
4022.361	-48.35
4024.85	-48.53
4027.338	-47.99
4029.823	-47.62
4032.307	-47.62
4034.789	-47.08
4037.269	-46.17
4039.747	-45.9
4042.224	-44.72
4044.699	-44.72
4047.172	-43.81
4049.643	-43.08
4052.112	-42.17
4054.58	-42.53
4057.046	-41.99
4059.51	-41.35
4061.972	-41.72
4064.432	-42.08
4066.891	-41.81
4069.348	-42.62
4071.803	-42.17
4074.256	-42.72
4076.708	-43.08
4079.158	-44.35
4081.606	-43.99
4084.052	-44.72
4086.497	-45.08
4088.939	-45.35
4091.38	-45.44
4093.819	-38.99
4096.257	-33.44
4098.693	-27.99
4101.127	-22.08
4103.559	-16.62
4105.989	-11.26
4108.418	-11.72
4110.845	-12.53
4113.27	-13.72
4115.694	-14.08
4118.115	-14.62
4120.535	-20.99
4122.954	-26.99
4125.37	-33.35
4127.785	-39.62
4130.198	-45.44
4132.609	-51.03
4135.019	-51.51
4137.427	-50.75
4139.833	-49.91
4142.237	-49.46