File: Data/Raman/2017-08-24 - Glass, alluminum 108/Aluminum II [full set]/Alu-BS-BLANK 30s,I=1, BC=3, 1sta _RamanShift_2.txt
Data from Alu-BS-BLANK 30s,I=1, BC=3, 1sta _RamanShift_2.txt Node

Date: Thu Aug 24 13:40:51 IDT 2017
User: aro
Spectrometer: QEPB0276
Trigger mode: 0
Integration Time (sec): 3.000000E1
Scans to average: 1
Electric dark correction enabled: true
Nonlinearity correction enabled: false
Boxcar width: 5
XAxis mode: Raman Shifts
Number of Pixels in Spectrum: 1044
>>>>>Begin Spectral Data<<<<<
160.701	185.38
166.742	289.38
172.777	394
178.805	485.49
184.826	559.38
190.841	621.1
196.849	734.47
202.85	850.01
208.845	969.28
214.833	1081.56
220.815	1180.92
226.789	1257.47
232.758	1305.28
238.719	1335.1
244.674	1360.74
250.623	1386.56
256.565	1415.1
262.5	1442.19
268.429	1468.74
274.351	1492.19
280.267	1518.74
286.176	1544.56
292.079	1570.38
297.975	1594.56
303.865	1618.83
309.748	1642.19
315.625	1665.65
321.495	1685.83
327.359	1705.83
333.217	1729.01
339.068	1753.1
344.912	1782.38
350.751	1821.01
356.583	1865.83
362.408	1904.38
368.227	1928.19
374.04	1953.28
379.847	1993.19
385.647	2069.01
391.44	2185.19
397.228	2299.65
403.009	2366.38
408.784	2387.65
414.553	2384.28
420.315	2367.56
426.071	2352.47
431.821	2345.92
437.565	2330.19
443.302	2295.92
449.033	2220.28
454.758	2102.19
460.477	1980.92
466.189	1900.83
471.896	1850.01
477.596	1798.01
483.29	1734.38
488.978	1659.74
494.66	1578.1
500.335	1494.56
506.005	1407.38
511.668	1320.83
517.325	1231.38
522.977	1138.92
528.622	1046.56
534.261	962.28
539.894	891.47
545.521	838.19
551.141	799.1
556.756	771.47
562.365	751.1
567.968	735.19
573.565	723.56
579.155	715.56
584.74	710.38
590.319	705.74
595.892	700.1
601.459	694.38
607.02	691.01
612.575	697.19
618.124	716.19
623.667	739.83
629.204	755.01
634.735	755.19
640.261	745.92
645.781	732.65
651.294	722.65
656.802	711.28
662.304	699.92
667.8	685.47
673.29	661.38
678.775	625.01
684.254	581.28
689.726	548.01
695.193	529.92
700.655	521.92
706.11	517.47
711.56	514.1
717.004	515.92
722.442	523.47
727.874	533.19
733.301	542.01
738.722	547.65
744.137	555.47
749.547	563.92
754.951	573.19
760.349	583.83
765.741	597.28
771.128	609.01
776.509	617.01
781.885	620.74
787.254	620.47
792.618	621.28
797.977	623.28
803.33	623.28
808.677	622.01
814.019	618.65
819.355	609.83
824.686	595.74
830.011	580.56
835.33	564.47
840.644	546.74
845.952	529.47
851.255	511.19
856.552	494.01
861.844	477.92
867.13	463.1
872.41	447.28
877.686	435.1
882.955	424.28
888.219	415.19
893.478	408.65
898.731	403.1
903.979	399.65
909.221	397.56
914.458	395.01
919.69	393.56
924.916	390.83
930.136	389.65
935.351	387.92
940.561	388.28
945.766	386.28
950.965	384.19
956.158	382.28
961.347	379.74
966.529	377.1
971.707	376.1
976.879	374.56
982.046	374.1
987.208	374.19
992.364	374.56
997.515	374.92
1002.66	377.1
1007.801	379.56
1012.936	383.38
1018.066	388.38
1023.19	393.01
1028.309	398.01
1033.423	401.56
1038.532	404.92
1043.636	408.65
1048.734	411.56
1053.827	413.28
1058.915	414.56
1063.998	414.38
1069.075	413.1
1074.147	409.47
1079.214	406.74
1084.276	401.28
1089.333	397.01
1094.385	391.56
1099.431	386.38
1104.472	379.74
1109.509	374.01
1114.54	368.38
1119.565	363.83
1124.586	359.83
1129.602	357.38
1134.613	354.28
1139.618	354.38
1144.619	354.65
1149.614	355.56
1154.604	357.1
1159.589	359.01
1164.57	361.28
1169.545	362.56
1174.515	363.83
1179.48	366.56
1184.44	367.47
1189.395	368.65
1194.345	368.74
1199.29	369.19
1204.23	371.19
1209.165	369.65
1214.095	370.47
1219.021	369.65
1223.941	369.83
1228.856	368.83
1233.766	364.38
1238.672	360.65
1243.572	355.47
1248.467	350.83
1253.358	344.74
1258.244	336.83
1263.124	331.83
1268	326.65
1272.871	322.19
1277.737	318.47
1282.599	315.38
1287.455	314.83
1292.306	314.38
1297.153	316.1
1301.995	316.19
1306.832	319.01
1311.664	321.65
1316.491	322.92
1321.314	322.65
1326.132	323.1
1330.945	321.92
1335.753	321.65
1340.556	319.92
1345.354	317.56
1350.148	314.19
1354.937	312.65
1359.722	308.92
1364.501	306.1
1369.276	303.65
1374.046	300.92
1378.811	297.47
1383.572	295.1
1388.327	290.65
1393.079	286.47
1397.825	283.56
1402.567	281.83
1407.304	278.01
1412.036	276.56
1416.764	275.38
1421.487	274.92
1426.205	275.47
1430.919	276.38
1435.628	276.83
1440.333	279.56
1445.032	282.38
1449.727	284.28
1454.418	284.74
1459.104	286.56
1463.785	286.38
1468.462	286.74
1473.134	286.74
1477.802	287.01
1482.465	286.92
1487.123	287.74
1491.777	287.74
1496.426	288.1
1501.071	288.83
1505.711	289.28
1510.347	289.65
1514.978	289.38
1519.604	287.74
1524.226	285.65
1528.844	284.28
1533.457	288.1
1538.065	292.83
1542.669	294.83
1547.269	291.92
1551.864	288.1
1556.454	285.1
1561.041	281.83
1565.622	279.83
1570.199	278.1
1574.772	276.56
1579.34	274.56
1583.904	267.19
1588.464	258.01
1593.019	251.38
1597.569	249.83
1602.115	249.19
1606.657	248.38
1611.195	247.92
1615.728	246.83
1620.256	246.47
1624.78	246.28
1629.3	245.65
1633.816	245.65
1638.327	245.92
1642.834	247.19
1647.336	247.1
1651.834	248.01
1656.328	248.1
1660.817	248.65
1665.302	250.1
1669.783	250.28
1674.259	250.1
1678.732	250.19
1683.199	249.28
1687.663	248.38
1692.122	246.01
1696.577	244.56
1701.028	242.37
1705.474	240.38
1709.917	238.01
1714.355	234.19
1718.788	229.92
1723.218	226.47
1727.643	222.01
1732.064	218.28
1736.481	213.56
1740.893	209.83
1745.301	206.74
1749.705	203.01
1754.105	199.83
1758.501	197.47
1762.893	196.38
1767.28	196.19
1771.663	194.83
1776.042	194.01
1780.417	193.28
1784.787	192.65
1789.154	191.74
1793.516	191.1
1797.874	189.01
1802.228	186.65
1806.578	183.28
1810.924	180.1
1815.266	176.01
1819.603	172.74
1823.937	169.92
1828.266	166.83
1832.591	163.38
1836.913	161.1
1841.23	158.1
1845.543	157.19
1849.852	157.47
1854.156	157.47
1858.457	156.47
1862.754	156.56
1867.047	156.92
1871.335	157.01
1875.62	156.92
1879.9	159.19
1884.177	159.65
1888.449	160.56
1892.718	161.56
1896.982	162.47
1901.243	163.01
1905.499	163.83
1909.752	164.83
1914	166.47
1918.245	167.47
1922.485	168.38
1926.722	168.01
1930.954	167.56
1935.183	167.47
1939.408	165.74
1943.628	162.92
1947.845	160.56
1952.058	158.28
1956.267	154.83
1960.472	150.47
1964.673	146.92
1968.87	143.19
1973.063	139.1
1977.252	135.56
1981.438	132.01
1985.619	129.74
1989.797	127.83
1993.971	126.1
1998.14	124.19
2002.306	123.01
2006.469	122.47
2010.627	120.92
2014.781	119.74
2018.932	119.01
2023.078	118.74
2027.221	117.65
2031.36	116.01
2035.495	115.1
2039.627	114.65
2043.754	114.19
2047.878	114.92
2051.998	115.1
2056.114	115.92
2060.226	116.83
2064.334	117.65
2068.439	118.56
2072.54	119.38
2076.637	121.1
2080.73	121.74
2084.82	121.56
2088.906	121.1
2092.988	120.19
2097.066	118.74
2101.14	117.38
2105.211	116.1
2109.278	114.19
2113.342	112.19
2117.401	110.37
2121.457	108.1
2125.509	106.65
2129.558	104.65
2133.602	103.19
2137.643	101.01
2141.681	99.19
2145.714	96.83
2149.744	94.56
2153.77	92.92
2157.793	91.19
2161.812	88.74
2165.827	86.74
2169.838	84.83
2173.846	83.19
2177.851	81.65
2181.851	80.74
2185.848	80.19
2189.841	79.38
2193.831	79.1
2197.817	78.56
2201.799	78.28
2205.778	78.47
2209.753	78.74
2213.725	78.01
2217.693	78.19
2221.657	78.65
2225.618	78.65
2229.575	76.92
2233.529	76.65
2237.479	75.38
2241.425	74.19
2245.368	73.38
2249.307	72.74
2253.243	71.28
2257.175	70.19
2261.104	69.01
2265.029	67.28
2268.95	65.83
2272.868	66.38
2276.783	65.28
2280.694	64.83
2284.601	63.83
2288.505	62.28
2292.405	60.92
2296.302	60.28
2300.195	60.47
2304.085	60.47
2307.971	64.01
2311.854	73.65
2315.734	83.28
2319.609	89.28
2323.482	89.56
2327.351	89.38
2331.216	89.28
2335.078	89.1
2338.937	87.92
2342.792	86.1
2346.643	84.1
2350.492	80.01
2354.336	69.01
2358.178	57.1
2362.015	50.01
2365.85	48.83
2369.681	48.01
2373.508	46.38
2377.333	45.47
2381.153	45.47
2384.971	46.01
2388.785	45.74
2392.595	44.01
2396.402	43.28
2400.206	42.28
2404.007	41.1
2407.804	38.92
2411.597	38.28
2415.388	38.01
2419.174	37.56
2422.958	36.38
2426.738	34.01
2430.515	32.92
2434.289	32.56
2438.059	31.92
2441.825	31.74
2445.589	32.01
2449.349	32.47
2453.106	32.01
2456.859	32.19
2460.61	32.01
2464.356	32.1
2468.1	32.56
2471.84	32.1
2475.577	32.1
2479.311	32.01
2483.041	32.19
2486.768	31.56
2490.492	31.01
2494.213	30.74
2497.93	30.83
2501.644	30.1
2505.355	29.74
2509.062	29.19
2512.766	29.01
2516.467	28.01
2520.165	27.28
2523.859	26.56
2527.551	26.19
2531.239	25.92
2534.923	25.65
2538.605	24.83
2542.283	23.83
2545.958	23.1
2549.63	22.56
2553.299	22.74
2556.964	22.65
2560.626	22.74
2564.285	22.47
2567.941	21.92
2571.594	21.19
2575.243	20.47
2578.89	19.65
2582.533	19.65
2586.173	19.92
2589.809	20.28
2593.443	20.1
2597.073	19.56
2600.701	18.83
2604.325	17.47
2607.946	17.28
2611.564	16.65
2615.178	16.28
2618.79	16.01
2622.398	15.74
2626.004	14.28
2629.606	12.92
2633.205	11.19
2636.801	10.28
2640.394	8.83
2643.983	8.01
2647.57	6.56
2651.153	5.83
2654.734	5.37
2658.311	4.19
2661.885	2.74
2665.456	1.65
2669.025	1.38
2672.589	0.83
2676.151	0.38
2679.71	-0.08
2683.266	-0.72
2686.819	-0.99
2690.368	-1.53
2693.915	-2.44
2697.458	-2.08
2700.999	-2.35
2704.536	-1.53
2708.071	-1.99
2711.602	-1.72
2715.13	-1.53
2718.656	-1.26
2722.178	-0.35
2725.697	0.38
2729.214	1.56
2732.727	0.83
2736.237	1.01
2739.744	1.47
2743.249	1.47
2746.75	1.01
2750.248	1.01
2753.743	0.28
2757.236	-0.81
2760.725	-2.08
2764.211	-3.44
2767.695	-4.62
2771.175	-4.08
2774.652	-5.35
2778.127	-6.17
2781.598	-7.26
2785.067	-7.53
2788.532	-8.26
2791.995	-8.26
2795.455	-7.9
2798.911	-7.62
2802.365	-7.72
2805.816	-7.62
2809.264	-8.17
2812.709	-8.26
2816.151	-8.53
2819.59	-8.81
2823.026	-8.17
2826.46	-8.63
2829.89	-9.08
2833.318	-9.17
2836.742	-9.63
2840.164	-10.08
2843.583	-10.81
2846.999	-11.08
2850.412	-11.44
2853.822	-11.81
2857.229	-11.9
2860.634	-12.63
2864.035	-12.9
2867.434	-13.63
2870.83	-13.99
2874.223	-14.72
2877.613	-14.72
2881	-15.08
2884.385	-15.08
2887.766	-15.9
2891.145	-16.9
2894.521	-17.44
2897.894	-18.44
2901.264	-18.81
2904.631	-18.99
2907.996	-19.53
2911.358	-19.72
2914.717	-20.62
2918.073	-21.44
2921.426	-22.26
2924.777	-22.44
2928.124	-22.17
2931.469	-22.53
2934.811	-23.17
2938.15	-23.35
2941.487	-23.9
2944.821	-24.08
2948.152	-24.26
2951.48	-24.17
2954.805	-24.35
2958.128	-24.44
2961.447	-24.44
2964.765	-24.53
2968.079	-25.17
2971.39	-24.17
2974.699	-24.08
2978.005	-23.62
2981.308	-23.9
2984.609	-24.17
2987.907	-24.81
2991.202	-24.99
2994.494	-25.53
2997.784	-25.99
3001.07	-26.08
3004.355	-25.99
3007.636	-27.26
3010.915	-27.99
3014.191	-29.53
3017.464	-29.81
3020.734	-30.17
3024.002	-30.53
3027.267	-30.99
3030.53	-31.17
3033.789	-31.81
3037.046	-32.17
3040.301	-32.72
3043.552	-33.17
3046.801	-33.72
3050.048	-32.72
3053.291	-33.81
3056.532	-33.99
3059.771	-34.26
3063.006	-34.08
3066.239	-34.08
3069.469	-33.9
3072.697	-34.9
3075.922	-34.62
3079.144	-34.26
3082.364	-34.44
3085.581	-35.17
3088.795	-34.72
3092.007	-35.53
3095.216	-35.53
3098.423	-36.35
3101.627	-36.17
3104.828	-35.99
3108.026	-35.08
3111.222	-35.62
3114.416	-36.17
3117.607	-36.53
3120.795	-37.44
3123.98	-38.17
3127.163	-37.9
3130.344	-38.17
3133.521	-37.62
3136.696	-38.62
3139.869	-39.53
3143.039	-40.53
3146.206	-40.53
3149.371	-40.53
3152.533	-40.35
3155.693	-39.72
3158.85	-38.99
3162.005	-39.17
3165.157	-39.08
3168.306	-39.53
3171.453	-39.08
3174.597	-38.99
3177.739	-38.72
3180.878	-38.99
3184.014	-39.08
3187.149	-39.44
3190.28	-39.26
3193.409	-39.9
3196.536	-39.53
3199.659	-39.62
3202.781	-40.17
3205.9	-41.44
3209.016	-42.08
3212.13	-42.62
3215.241	-42.72
3218.35	-42.99
3221.456	-42.99
3224.56	-43.81
3227.661	-44.08
3230.76	-44.35
3233.856	-44.99
3236.95	-44.9
3240.041	-45.44
3243.13	-45.35
3246.216	-45.81
3249.3	-46.53
3252.382	-46.72
3255.46	-47.08
3258.537	-47.08
3261.611	-47.62
3264.682	-47.99
3267.751	-47.44
3270.818	-47.44
3273.882	-46.99
3276.943	-46.9
3280.002	-46.81
3283.059	-46.44
3286.113	-46.44
3289.165	-46.17
3292.214	-46.26
3295.261	-46.17
3298.306	-46.53
3301.348	-47.17
3304.387	-47.44
3307.425	-47.35
3310.459	-47.17
3313.492	-47.08
3316.521	-47.44
3319.549	-47.62
3322.574	-47.99
3325.597	-48.44
3328.617	-48.62
3331.635	-48.99
3334.65	-49.62
3337.663	-49.81
3340.674	-49.72
3343.682	-50.9
3346.688	-51.08
3349.691	-51.99
3352.692	-52.72
3355.691	-52.81
3358.687	-52.9
3361.681	-53.81
3364.673	-53.72
3367.662	-53.26
3370.649	-53.62
3373.633	-53.81
3376.615	-53.35
3379.595	-53.35
3382.572	-52.35
3385.547	-51.53
3388.52	-51.81
3391.49	-51.62
3394.458	-50.62
3397.424	-50.9
3400.387	-51.26
3403.348	-51.17
3406.307	-51.26
3409.263	-51.35
3412.217	-51.08
3415.168	-51.35
3418.118	-51.81
3421.065	-51.81
3424.009	-51.9
3426.951	-51.53
3429.891	-51.44
3432.829	-51.35
3435.764	-51.44
3438.697	-51.81
3441.628	-52.08
3444.557	-52.35
3447.483	-52.17
3450.407	-52.26
3453.328	-52.44
3456.247	-52.08
3459.164	-52.44
3462.079	-52.08
3464.991	-51.72
3467.902	-51.53
3470.809	-51.26
3473.715	-51.17
3476.618	-52.08
3479.519	-51.99
3482.418	-51.81
3485.315	-51.08
3488.209	-51.53
3491.101	-52.08
3493.99	-51.9
3496.878	-51.62
3499.763	-51.53
3502.646	-51.72
3505.527	-51.53
3508.405	-51.53
3511.281	-51.9
3514.155	-51.9
3517.027	-52.53
3519.897	-52.17
3522.764	-51.81
3525.629	-52.44
3528.492	-52.9
3531.352	-52.26
3534.211	-51.99
3537.067	-53.26
3539.921	-52.72
3542.773	-53.17
3545.622	-53.62
3548.469	-53.44
3551.315	-54.08
3554.157	-53.9
3556.998	-53.81
3559.837	-53.9
3562.673	-54.72
3565.507	-54.81
3568.339	-53.35
3571.169	-53.72
3573.996	-53.62
3576.822	-53.9
3579.645	-54.35
3582.466	-54.17
3585.285	-54.72
3588.101	-54.62
3590.916	-55.17
3593.728	-54.53
3596.538	-54.72
3599.346	-54.99
3602.152	-54.81
3604.956	-55.08
3607.757	-54.08
3610.556	-54.08
3613.354	-53.53
3616.149	-53.62
3618.942	-54.17
3621.732	-53.72
3624.521	-55.08
3627.307	-55.44
3630.092	-55.44
3632.874	-56.35
3635.654	-56.81
3638.432	-57.17
3641.208	-57.08
3643.982	-57.99
3646.753	-57.81
3649.523	-57.9
3652.29	-58.17
3655.055	-58.17
3657.818	-57.72
3660.579	-57.99
3663.338	-57.9
3666.095	-57.26
3668.849	-57.72
3671.602	-57.99
3674.352	-57.17
3677.101	-57.44
3679.847	-56.81
3682.591	-56.62
3685.333	-55.9
3688.073	-56.08
3690.811	-55.81
3693.547	-54.72
3696.281	-54.08
3699.013	-54.26
3701.742	-54.08
3704.47	-54.62
3707.195	-54.72
3709.919	-55.17
3712.64	-55.62
3715.359	-55.44
3718.076	-55.9
3720.792	-56.72
3723.505	-57.35
3726.216	-57.9
3728.925	-58.26
3731.632	-58.35
3734.336	-58.81
3737.039	-58.99
3739.74	-57.81
3742.439	-57.26
3745.136	-58.17
3747.83	-57.72
3750.523	-57.53
3753.213	-57.08
3755.902	-57.62
3758.589	-56.72
3761.273	-56.62
3763.956	-56.35
3766.636	-56.08
3769.315	-56.72
3771.991	-58.08
3774.665	-59.53
3777.338	-59.72
3780.008	-59.72
3782.677	-59.99
3785.343	-59.72
3788.007	-59.81
3790.67	-59.62
3793.33	-59.26
3795.989	-59.08
3798.645	-58.99
3801.299	-57.62
3803.952	-55.53
3806.602	-55.9
3809.251	-55.99
3811.897	-55.99
3814.542	-56.44
3817.184	-56.9
3819.825	-57.81
3822.463	-58.17
3825.1	-58.53
3827.735	-59.53
3830.367	-60.44
3832.998	-60.72
3835.627	-60.26
3838.253	-60.17
3840.878	-60.99
3843.501	-60.35
3846.122	-60.26
3848.741	-59.81
3851.358	-59.62
3853.973	-58.81
3856.586	-57.35
3859.197	-55.9
3861.806	-53.35
3864.414	-49.44
3867.019	-42.08
3869.622	-30.81
3872.224	-18.72
3874.823	-9.44
3877.421	-3.26
3880.016	-0.26
3882.61	0.65
3885.202	0.74
3887.792	0.28
3890.38	-1.81
3892.966	-5.53
3895.55	-12.26
3898.132	-21.99
3900.713	-30.81
3903.291	-35.44
3905.868	-41.62
3908.442	-45.26
3911.015	-46.9
3913.586	-48.17
3916.155	-48.9
3918.722	-49.35
3921.287	-49.72
3923.85	-50.53
3926.411	-51.72
3928.971	-55.53
3931.528	-60.35
3934.084	-60.26
3936.638	-60.35
3939.19	-60.81
3941.74	-60.44
3944.288	-59.99
3946.834	-59.26
3949.378	-58.81
3951.921	-57.99
3954.462	-57.17
3957	-56.62
3959.537	-56.35
3962.072	-55.99
3964.606	-55.26
3967.137	-54.44
3969.667	-53.99
3972.194	-54.26
3974.72	-54.62
3977.244	-54.62
3979.766	-54.08
3982.286	-54.26
3984.805	-53.9
3987.321	-53.53
3989.836	-53.62
3992.349	-53.62
3994.86	-53.72
3997.369	-53.9
3999.877	-53.72
4002.382	-53.99
4004.886	-54.35
4007.388	-55.44
4009.888	-55.99
4012.386	-56.72
4014.883	-57.35
4017.377	-57.53
4019.87	-58.17
4022.361	-57.99
4024.85	-58.26
4027.338	-57.9
4029.823	-57.99
4032.307	-58.35
4034.789	-58.35
4037.269	-57.9
4039.747	-57.35
4042.224	-56.9
4044.699	-56.99
4047.172	-56.53
4049.643	-56.53
4052.112	-56.53
4054.58	-56.99
4057.046	-56.9
4059.51	-56.44
4061.972	-56.17
4064.432	-55.99
4066.891	-56.53
4069.348	-56.99
4071.803	-56.9
4074.256	-56.99
4076.708	-56.72
4079.158	-56.72
4081.606	-57.08
4084.052	-57.62
4086.497	-57.62
4088.939	-57.99
4091.38	-58.08
4093.819	-47.9
4096.257	-38.81
4098.693	-29.99
4101.127	-20.9
4103.559	-13.08
4105.989	-5.35
4108.418	-4.62
4110.845	-4.53
4113.27	-4.72
4115.694	-4.9
4118.115	-5.17
4120.535	-14.72
4122.954	-24.17
4125.37	-33.17
4127.785	-42.72
4130.198	-51.53
4132.609	-59.73
4135.019	-60.4
4137.427	-60.25
4139.833	-60.48
4142.237	-60.29