File: Data/Raman/2017-08-24 - Glass, alluminum 108/Aluminum II [full set]/Alu-BS-control 30s,I=1, BC=3, 1sta _RamanShift_2.txt
Data from Alu-BS-control 30s,I=1, BC=3, 1sta _RamanShift_2.txt Node

Date: Thu Aug 24 13:43:21 IDT 2017
User: aro
Spectrometer: QEPB0276
Trigger mode: 0
Integration Time (sec): 3.000000E1
Scans to average: 1
Electric dark correction enabled: true
Nonlinearity correction enabled: false
Boxcar width: 5
XAxis mode: Raman Shifts
Number of Pixels in Spectrum: 1044
>>>>>Begin Spectral Data<<<<<
160.701	180.96
166.742	273.77
172.777	369.38
178.805	453.29
184.826	522.52
190.841	581.26
196.849	684.44
202.85	790.53
208.845	898.17
214.833	1003.9
220.815	1097.17
226.789	1168.99
232.758	1215.72
238.719	1244.08
244.674	1267.44
250.623	1291.62
256.565	1314.81
262.5	1339.99
268.429	1364.35
274.351	1387.81
280.267	1411.17
286.176	1432.44
292.079	1455.53
297.975	1477.08
303.865	1498.72
309.748	1517.81
315.625	1537.35
321.495	1556.81
327.359	1574.35
333.217	1592.35
339.068	1611.53
344.912	1636.53
350.751	1670.81
356.583	1710.26
362.408	1738.81
368.227	1760.44
374.04	1782.26
379.847	1817.44
385.647	1882.08
391.44	1983.99
397.228	2083.72
403.009	2144.62
408.784	2161.81
414.553	2158.72
420.315	2141.26
426.071	2129.81
431.821	2119.44
437.565	2106.26
443.302	2074.44
449.033	2009.17
454.758	1904.9
460.477	1798.35
466.189	1726.53
471.896	1682.81
477.596	1636.99
483.29	1583.53
488.978	1521.9
494.66	1455.26
500.335	1383.62
506.005	1308.35
511.668	1233.26
517.325	1155.08
522.977	1076.72
528.622	998.62
534.261	924.53
539.894	863.53
545.521	816.35
551.141	781.81
556.756	756.81
562.365	737.17
567.968	724.26
573.565	713.17
579.155	705.9
584.74	698.99
590.319	692.17
595.892	687.08
601.459	681.9
607.02	680.44
612.575	684.72
618.124	700.81
623.667	725.44
629.204	738.9
634.735	738.99
640.261	730.81
645.781	722.72
651.294	712.72
656.802	702.53
662.304	692.62
667.8	679.53
673.29	658.08
678.775	625.53
684.254	585.53
689.726	555.81
695.193	540.08
700.655	533.35
706.11	527.72
711.56	525.62
717.004	527.62
722.442	532.26
727.874	539.81
733.301	547.44
738.722	551.72
744.137	556.08
749.547	560.62
754.951	567.53
760.349	574.9
765.741	585.17
771.128	593.53
776.509	599.35
781.885	601.9
787.254	600.44
792.618	599.26
797.977	600.26
803.33	601.53
808.677	600.44
814.019	595.72
819.355	588.62
824.686	577.26
830.011	565.9
835.33	550.99
840.644	535.81
845.952	521.62
851.255	506.99
856.552	492.72
861.844	478.62
867.13	466.53
872.41	454.9
877.686	443.17
882.955	433.17
888.219	424.62
893.478	419.35
898.731	414.72
903.979	410.44
909.221	407.44
914.458	405.17
919.69	403.53
924.916	400.72
930.136	399.17
935.351	398.44
940.561	396.99
945.766	393.9
950.965	391.44
956.158	389.26
961.347	386.26
966.529	384.35
971.707	381.9
976.879	379.62
982.046	377.62
987.208	377.17
992.364	376.44
997.515	377.35
1002.66	380.35
1007.801	382.9
1012.936	385.72
1018.066	389.44
1023.19	391.53
1028.309	395.72
1033.423	398.35
1038.532	401.62
1043.636	403.35
1048.734	405.44
1053.827	406.72
1058.915	406.44
1063.998	405.62
1069.075	403.53
1074.147	401.62
1079.214	400.62
1084.276	397.35
1089.333	393.81
1094.385	390.72
1099.431	386.99
1104.472	381.17
1109.509	375.53
1114.54	369.53
1119.565	365.99
1124.586	362.62
1129.602	360.44
1134.613	357.62
1139.618	356.17
1144.619	356.17
1149.614	355.08
1154.604	354.99
1159.589	356.35
1164.57	357.62
1169.545	360.08
1174.515	361.08
1179.48	361.99
1184.44	361.53
1189.395	362.35
1194.345	361.99
1199.29	361.72
1204.23	362.99
1209.165	363.08
1214.095	364.08
1219.021	365.08
1223.941	364.35
1228.856	362.35
1233.766	360.62
1238.672	358.08
1243.572	353.62
1248.467	349.35
1253.358	343.99
1258.244	337.81
1263.124	333.72
1268	329.17
1272.871	323.99
1277.737	321.17
1282.599	319.53
1287.455	318.17
1292.306	317.53
1297.153	318.62
1301.995	319.62
1306.832	321.9
1311.664	323.53
1316.491	323.9
1321.314	322.81
1326.132	322.08
1330.945	319.9
1335.753	318.26
1340.556	316.08
1345.354	313.35
1350.148	310.44
1354.937	307.81
1359.722	303.9
1364.501	301.53
1369.276	298.35
1374.046	295.81
1378.811	293.08
1383.572	290.44
1388.327	286.9
1393.079	283.72
1397.825	280.9
1402.567	278.72
1407.304	275.53
1412.036	275.35
1416.764	274.35
1421.487	274.62
1426.205	274.72
1430.919	276.08
1435.628	276.99
1440.333	278.9
1445.032	280.35
1449.727	283.26
1454.418	283.99
1459.104	285.08
1463.785	285.26
1468.462	284.62
1473.134	283.99
1477.802	283.99
1482.465	283.72
1487.123	285.08
1491.777	285.26
1496.426	287.17
1501.071	286.08
1505.711	286.17
1510.347	285.99
1514.978	284.17
1519.604	284.26
1524.226	282.81
1528.844	282.17
1533.457	284.9
1538.065	288.9
1542.669	289.81
1547.269	286.26
1551.864	283.53
1556.454	279.81
1561.041	277.35
1565.622	275.9
1570.199	272.62
1574.772	271.35
1579.34	268.72
1583.904	261.62
1588.464	252.72
1593.019	247.08
1597.569	245.26
1602.115	244.44
1606.657	243.44
1611.195	242.17
1615.728	240.44
1620.256	239.9
1624.78	238.53
1629.3	237.99
1633.816	237.08
1638.327	237.53
1642.834	237.63
1647.336	238.26
1651.834	238.99
1656.328	239.62
1660.817	240.26
1665.302	240.81
1669.783	240.08
1674.259	239.35
1678.732	237.99
1683.199	237.53
1687.663	235.9
1692.122	233.26
1696.577	230.35
1701.028	226.17
1705.474	222.99
1709.917	219.53
1714.355	216.81
1718.788	213.26
1723.218	210.44
1727.643	207.35
1732.064	202.44
1736.481	197.35
1740.893	193.99
1745.301	190.62
1749.705	188.44
1754.105	184.62
1758.501	182.72
1762.893	179.35
1767.28	178.53
1771.663	176.17
1776.042	174.53
1780.417	174.99
1784.787	174.81
1789.154	174.44
1793.516	173.08
1797.874	170.99
1802.228	170.81
1806.578	167.99
1810.924	165.99
1815.266	162.62
1819.603	159.62
1823.937	157.99
1828.266	154.72
1832.591	151.72
1836.913	149.35
1841.23	147.35
1845.543	145.81
1849.852	144.35
1854.156	143.72
1858.457	143.26
1862.754	143.44
1867.047	143.08
1871.335	141.9
1875.62	141.99
1879.9	143.08
1884.177	142.62
1888.449	142.62
1892.718	142.99
1896.982	142.72
1901.243	142.81
1905.499	143.26
1909.752	143.44
1914	144.99
1918.245	145.08
1922.485	144.72
1926.722	143.62
1930.954	143.53
1935.183	142.53
1939.408	141.17
1943.628	139.53
1947.845	136.81
1952.058	133.81
1956.267	130.62
1960.472	126.63
1964.673	123.9
1968.87	121.17
1973.063	118.9
1977.252	115.62
1981.438	113.26
1985.619	110.9
1989.797	109.35
1993.971	108.81
1998.14	107.17
2002.306	106.62
2006.469	106.17
2010.627	104.62
2014.781	102.81
2018.932	100.72
2023.078	99.44
2027.221	97.99
2031.36	97.17
2035.495	96.35
2039.627	95.44
2043.754	94.99
2047.878	94.81
2051.998	95.35
2056.114	95.72
2060.226	96.99
2064.334	98.44
2068.439	99.26
2072.54	99.9
2076.637	100.44
2080.73	100.44
2084.82	100.35
2088.906	100.26
2092.988	98.81
2097.066	96.35
2101.14	95.26
2105.211	93.62
2109.278	91.35
2113.342	90.26
2117.401	88.72
2121.457	87.08
2125.509	85.72
2129.558	84.35
2133.602	82.62
2137.643	81.53
2141.681	81.08
2145.714	79.72
2149.744	78.17
2153.77	76.81
2157.793	74.9
2161.812	73.81
2165.827	71.81
2169.838	70.26
2173.846	68.53
2177.851	67.26
2181.851	65.26
2185.848	63.35
2189.841	61.81
2193.831	61.08
2197.817	59.72
2201.799	58.44
2205.778	57.44
2209.753	57.17
2213.725	56.44
2217.693	56.35
2221.657	56.35
2225.618	56.53
2229.575	55.72
2233.529	55.72
2237.479	55.99
2241.425	55.26
2245.368	55.08
2249.307	54.53
2253.243	53.72
2257.175	52.99
2261.104	52.08
2265.029	50.9
2268.95	50.26
2272.868	50.53
2276.783	49.26
2280.694	47.81
2284.601	47.81
2288.505	46.99
2292.405	45.99
2296.302	45.35
2300.195	45.26
2304.085	45.53
2307.971	48.53
2311.854	57.08
2315.734	67.99
2319.609	73.99
2323.482	74.26
2327.351	74.35
2331.216	73.53
2335.078	72.62
2338.937	71.44
2342.792	69.35
2346.643	66.81
2350.492	62.62
2354.336	52.26
2358.178	38.81
2362.015	31.81
2365.85	29.62
2369.681	27.35
2373.508	26.81
2377.333	26.62
2381.153	26.62
2384.971	27.26
2388.785	27.26
2392.595	25.9
2396.402	25.72
2400.206	26.08
2404.007	25.53
2407.804	24.53
2411.597	25.08
2415.388	24.81
2419.174	24.62
2422.958	23.72
2426.738	22.44
2430.515	21.17
2434.289	21.17
2438.059	20.35
2441.825	19.44
2445.589	18.35
2449.349	18.62
2453.106	17.99
2456.859	17.08
2460.61	16.35
2464.356	16.08
2468.1	15.62
2471.84	14.99
2475.577	14.44
2479.311	14.08
2483.041	13.26
2486.768	13.08
2490.492	12.17
2494.213	10.99
2497.93	11.72
2501.644	11.08
2505.355	10.26
2509.062	9.81
2512.766	10.08
2516.467	9.81
2520.165	8.81
2523.859	8.99
2527.551	8.44
2531.239	8.53
2534.923	8.63
2538.605	7.26
2542.283	6.99
2545.958	7.53
2549.63	7.35
2553.299	7.44
2556.964	7.17
2560.626	7.35
2564.285	7.08
2567.941	7.08
2571.594	6.53
2575.243	6.44
2578.89	5.9
2582.533	5.17
2586.173	4.72
2589.809	4.44
2593.443	3.72
2597.073	2.63
2600.701	2.17
2604.325	0.99
2607.946	0.35
2611.564	-0.28
2615.178	-1.1
2618.79	-1.65
2622.398	-2.19
2626.004	-3.56
2629.606	-4.83
2633.205	-5.56
2636.801	-6.01
2640.394	-7.38
2643.983	-7.92
2647.57	-8.47
2651.153	-9.28
2654.734	-10.19
2658.311	-10.65
2661.885	-11.47
2665.456	-12.28
2669.025	-13.01
2672.589	-13.56
2676.151	-14.19
2679.71	-13.74
2683.266	-14.1
2686.819	-14.28
2690.368	-15.01
2693.915	-15.01
2697.458	-15.28
2700.999	-15.38
2704.536	-15.01
2708.071	-14.74
2711.602	-14.92
2715.13	-14.28
2718.656	-14.92
2722.178	-14.38
2725.697	-14.47
2729.214	-13.1
2732.727	-13.65
2736.237	-13.74
2739.744	-13.19
2743.249	-13.74
2746.75	-13.92
2750.248	-14.65
2753.743	-15.83
2757.236	-16.38
2760.725	-17.92
2764.211	-19.01
2767.695	-20.92
2771.175	-20.74
2774.652	-21.56
2778.127	-23.38
2781.598	-23.47
2785.067	-24.83
2788.532	-25.19
2791.995	-25.01
2795.455	-25.28
2798.911	-25.19
2802.365	-25.28
2805.816	-24.56
2809.264	-25.01
2812.709	-25.28
2816.151	-24.65
2819.59	-24.56
2823.026	-23.1
2826.46	-23.1
2829.89	-22.92
2833.318	-23.01
2836.742	-22.38
2840.164	-22.47
2843.583	-23.19
2846.999	-22.74
2850.412	-22.56
2853.822	-22.38
2857.229	-23.01
2860.634	-23.47
2864.035	-23.38
2867.434	-24.28
2870.83	-24.47
2874.223	-26.1
2877.613	-27.1
2881	-27.83
2884.385	-29.19
2887.766	-30.38
2891.145	-32.19
2894.521	-33.38
2897.894	-34.74
2901.264	-35.65
2904.631	-36.83
2907.996	-37.01
2911.358	-37.01
2914.717	-37.74
2918.073	-38.01
2921.426	-39.28
2924.777	-39.19
2928.124	-38.74
2931.469	-38.47
2934.811	-38.74
2938.15	-39.19
2941.487	-39.01
2944.821	-39.83
2948.152	-39.56
2951.48	-39.38
2954.805	-39.1
2958.128	-38.56
2961.447	-38.47
2964.765	-38.92
2968.079	-39.56
2971.39	-39.28
2974.699	-39.19
2978.005	-39.01
2981.308	-38.83
2984.609	-39.65
2987.907	-40.01
2991.202	-41.19
2994.494	-41.92
2997.784	-42.19
3001.07	-42.47
3004.355	-42.74
3007.636	-43.74
3010.915	-44.74
3014.191	-45.92
3017.464	-46.47
3020.734	-46.83
3024.002	-46.92
3027.267	-47.1
3030.53	-47.38
3033.789	-48.56
3037.046	-48.56
3040.301	-48.65
3043.552	-48.83
3046.801	-48.65
3050.048	-48.01
3053.291	-48.47
3056.532	-48.38
3059.771	-48.19
3063.006	-47.47
3066.239	-46.65
3069.469	-46.19
3072.697	-47.1
3075.922	-46.65
3079.144	-46.56
3082.364	-46.83
3085.581	-47.28
3088.795	-47.38
3092.007	-48.19
3095.216	-48.74
3098.423	-49.83
3101.627	-50.56
3104.828	-51.01
3108.026	-50.56
3111.222	-52.01
3114.416	-52.47
3117.607	-52.92
3120.795	-53.65
3123.98	-54.19
3127.163	-53.56
3130.344	-53.47
3133.521	-52.74
3136.696	-52.92
3139.869	-53.1
3143.039	-53.83
3146.206	-53.1
3149.371	-53.19
3152.533	-52.56
3155.693	-52.19
3158.85	-51.56
3162.005	-52.65
3165.157	-53.1
3168.306	-53.92
3171.453	-53.83
3174.597	-54.01
3177.739	-53.83
3180.878	-54.92
3184.014	-55.1
3187.149	-55.28
3190.28	-55.28
3193.409	-56.28
3196.536	-55.19
3199.659	-55.19
3202.781	-55.28
3205.9	-56.19
3209.016	-56.83
3212.13	-56.83
3215.241	-56.56
3218.35	-56.92
3221.456	-57.56
3224.56	-57.74
3227.661	-57.65
3230.76	-58.38
3233.856	-58.56
3236.95	-58.74
3240.041	-59.38
3243.13	-59.1
3246.216	-59.19
3249.3	-59.38
3252.382	-59.19
3255.46	-59.92
3258.537	-60.56
3261.611	-60.65
3264.682	-60.83
3267.751	-60.65
3270.818	-61.19
3273.882	-60.47
3276.943	-60.47
3280.002	-60.56
3283.059	-60.19
3286.113	-60.47
3289.165	-59.83
3292.214	-59.47
3295.261	-60.01
3298.306	-60.74
3301.348	-60.74
3304.387	-60.83
3307.425	-60.74
3310.459	-60.74
3313.492	-61.19
3316.521	-61.56
3319.549	-61.19
3322.574	-61.74
3325.597	-62.19
3328.617	-61.92
3331.635	-61.65
3334.65	-62.38
3337.663	-61.83
3340.674	-62.1
3343.682	-62.83
3346.688	-62.56
3349.691	-62.83
3352.692	-63.28
3355.691	-62.65
3358.687	-62.56
3361.681	-63.47
3364.673	-63.1
3367.662	-62.47
3370.649	-63.1
3373.633	-63.01
3376.615	-63.01
3379.595	-63.38
3382.572	-63.47
3385.547	-63.19
3388.52	-63.92
3391.49	-64.28
3394.458	-63.47
3397.424	-63.92
3400.387	-64.65
3403.348	-64.83
3406.307	-65.28
3409.263	-65.1
3412.217	-65.19
3415.168	-64.92
3418.118	-65.56
3421.065	-65.65
3424.009	-65.47
3426.951	-65.38
3429.891	-65.01
3432.829	-64.92
3435.764	-64.83
3438.697	-65.1
3441.628	-64.56
3444.557	-63.74
3447.483	-63.92
3450.407	-63.92
3453.328	-63.56
3456.247	-63.19
3459.164	-63.1
3462.079	-63.19
3464.991	-62.74
3467.902	-62.1
3470.809	-61.74
3473.715	-62.28
3476.618	-63.38
3479.519	-63.38
3482.418	-62.92
3485.315	-62.92
3488.209	-63.19
3491.101	-63.74
3493.99	-63.74
3496.878	-63.65
3499.763	-64.28
3502.646	-64.83
3505.527	-64.92
3508.405	-65.65
3511.281	-66.1
3514.155	-66.74
3517.027	-66.83
3519.897	-66.65
3522.764	-66.19
3525.629	-66.83
3528.492	-67.74
3531.352	-67.47
3534.211	-67.28
3537.067	-67.56
3539.921	-67.19
3542.773	-67.65
3545.622	-68.19
3548.469	-68.47
3551.315	-69.19
3554.157	-69.1
3556.998	-69.28
3559.837	-68.74
3562.673	-68.92
3565.507	-68.56
3568.339	-68.83
3571.169	-69.1
3573.996	-68.47
3576.822	-68.1
3579.645	-68.1
3582.466	-67.38
3585.285	-68.28
3588.101	-67.92
3590.916	-69.1
3593.728	-68.56
3596.538	-68.56
3599.346	-68.28
3602.152	-68.1
3604.956	-68.38
3607.757	-68.38
3610.556	-68.19
3613.354	-68.38
3616.149	-68.01
3618.942	-68.47
3621.732	-67.38
3624.521	-68.65
3627.307	-69.38
3630.092	-69.28
3632.874	-69.38
3635.654	-69.65
3638.432	-68.92
3641.208	-69.38
3643.982	-70.19
3646.753	-70.1
3649.523	-70.28
3652.29	-71.19
3655.055	-71.38
3657.818	-71.28
3660.579	-71.1
3663.338	-71.19
3666.095	-70.83
3668.849	-71.83
3671.602	-71.47
3674.352	-71.47
3677.101	-71.92
3679.847	-71.1
3682.591	-70.47
3685.333	-69.28
3688.073	-68.83
3690.811	-68.92
3693.547	-67.92
3696.281	-67.65
3699.013	-67.38
3701.742	-67.28
3704.47	-67.28
3707.195	-67.47
3709.919	-68.47
3712.64	-68.83
3715.359	-68.92
3718.076	-69.47
3720.792	-70.01
3723.505	-70.56
3726.216	-70.83
3728.925	-71.19
3731.632	-71.56
3734.336	-71.28
3737.039	-71.47
3739.74	-70.1
3742.439	-70.65
3745.136	-71.38
3747.83	-71.19
3750.523	-71.1
3753.213	-71.38
3755.902	-71.47
3758.589	-71.01
3761.273	-71.01
3763.956	-71.74
3766.636	-71.56
3769.315	-72.38
3771.991	-73.28
3774.665	-75.47
3777.338	-75.83
3780.008	-76.28
3782.677	-76.1
3785.343	-76.28
3788.007	-76.01
3790.67	-76.1
3793.33	-75.1
3795.989	-74.65
3798.645	-74.19
3801.299	-72.56
3803.952	-69.74
3806.602	-69.1
3809.251	-68.47
3811.897	-68.38
3814.542	-68.56
3817.184	-68.47
3819.825	-68.83
3822.463	-68.83
3825.1	-69.19
3827.735	-70.01
3830.367	-70.56
3832.998	-70.65
3835.627	-70.65
3838.253	-70.74
3840.878	-71.47
3843.501	-70.74
3846.122	-71.56
3848.741	-71.1
3851.358	-71.56
3853.973	-70.38
3856.586	-69.19
3859.197	-67.01
3861.806	-63.65
3864.414	-57.83
3867.019	-47.47
3869.622	-31.92
3872.224	-15.28
3874.823	-1.01
3877.421	7.26
3880.016	11.53
3882.61	12.08
3885.202	12.08
3887.792	10.81
3890.38	7.72
3892.966	1.44
3895.55	-8.19
3898.132	-22.65
3900.713	-39.47
3903.291	-53.28
3905.868	-61.38
3908.442	-65.65
3911.015	-67.1
3913.586	-68.01
3916.155	-68.38
3918.722	-68.47
3921.287	-68.38
3923.85	-69.1
3926.411	-69.83
3928.971	-70.19
3931.528	-70.19
3934.084	-70.38
3936.638	-70.19
3939.19	-70.28
3941.74	-70.65
3944.288	-70.56
3946.834	-70.1
3949.378	-69.74
3951.921	-69.56
3954.462	-69.28
3957	-69.28
3959.537	-69.56
3962.072	-69.38
3964.606	-69.65
3967.137	-69.56
3969.667	-68.92
3972.194	-69.1
3974.72	-69.65
3977.244	-69.92
3979.766	-69.56
3982.286	-69.56
3984.805	-70.01
3987.321	-69.65
3989.836	-69.65
3992.349	-69.01
3994.86	-68.65
3997.369	-68.19
3999.877	-68.38
4002.382	-69.19
4004.886	-68.83
4007.388	-69.74
4009.888	-70.01
4012.386	-69.47
4014.883	-69.92
4017.377	-70.19
4019.87	-70.83
4022.361	-71.38
4024.85	-72.1
4027.338	-71.83
4029.823	-71.56
4032.307	-71.92
4034.789	-71.74
4037.269	-71.19
4039.747	-71.1
4042.224	-70.65
4044.699	-70.65
4047.172	-70.38
4049.643	-69.56
4052.112	-69.28
4054.58	-69.83
4057.046	-69.74
4059.51	-69.74
4061.972	-69.65
4064.432	-70.01
4066.891	-70.38
4069.348	-70.74
4071.803	-70.47
4074.256	-70.65
4076.708	-71.19
4079.158	-71.56
4081.606	-70.83
4084.052	-71.38
4086.497	-71.1
4088.939	-70.92
4091.38	-70.56
4093.819	-56.47
4096.257	-43.19
4098.693	-30.92
4101.127	-18.74
4103.559	-7.92
4105.989	2.81
4108.418	2.17
4110.845	2.72
4113.27	2.26
4115.694	1.99
4118.115	1.9
4120.535	-11.83
4122.954	-25.19
4125.37	-37.74
4127.785	-50.28
4130.198	-61.38
4132.609	-72.17
4135.019	-72.04
4137.427	-72.12
4139.833	-71.95
4142.237	-71.71