File: Data/Raman/2017-08-24 - Glass, alluminum 108/Aluminum II [full set]/Alu-EC-control 30s,I=1, BC=3, 1sta _RamanShift_3.txt
Data from Alu-control 30s,I=1, BC=3, 1sta _RamanShift_3.txt Node

Date: Thu Aug 24 13:31:21 IDT 2017
User: aro
Spectrometer: QEPB0276
Trigger mode: 0
Integration Time (sec): 3.000000E1
Scans to average: 1
Electric dark correction enabled: true
Nonlinearity correction enabled: false
Boxcar width: 5
XAxis mode: Raman Shifts
Number of Pixels in Spectrum: 1044
>>>>>Begin Spectral Data<<<<<
160.701	171.75
166.742	263.18
172.777	356.62
178.805	438.08
184.826	504.65
190.841	559.11
196.849	659.02
202.85	760.84
208.845	865.57
214.833	965.93
220.815	1054.84
226.789	1119.93
232.758	1162.3
238.719	1188.02
244.674	1208.57
250.623	1231.39
256.565	1255.75
262.5	1280.3
268.429	1304.3
274.351	1326.39
280.267	1349.75
286.176	1372.75
292.079	1397.11
297.975	1419.39
303.865	1441.11
309.748	1461.11
315.625	1480.2
321.495	1499.3
327.359	1515.66
333.217	1534.11
339.068	1554.11
344.912	1578.84
350.751	1611.84
356.583	1651.93
362.408	1682.3
368.227	1706.84
374.04	1730.48
379.847	1767.48
385.647	1836.2
391.44	1942.11
397.228	2046.57
403.009	2108.48
408.784	2127.84
414.553	2126.84
420.315	2110.75
426.071	2098.02
431.821	2089.02
437.565	2074.11
443.302	2041.02
449.033	1970.39
454.758	1864.02
460.477	1754.93
466.189	1682.11
471.896	1635.93
477.596	1588.39
483.29	1532.02
488.978	1468.48
494.66	1397.3
500.335	1324.75
506.005	1249.2
511.668	1172.39
517.325	1091.66
522.977	1010.11
528.622	928.93
534.261	854.93
539.894	791.84
545.521	744.84
551.141	709.3
556.756	683.75
562.365	664.93
567.968	650.3
573.565	641.2
579.155	634.93
584.74	627.66
590.319	621.2
595.892	615.02
601.459	609.66
607.02	607.3
612.575	614.2
618.124	632.11
623.667	656.02
629.204	671.39
634.735	672.11
640.261	664.02
645.781	655.02
651.294	645.66
656.802	636.57
662.304	626.84
667.8	613.3
673.29	590.48
678.775	556.02
684.254	514.66
689.726	483.75
695.193	466.11
700.655	457.11
706.11	452.11
711.56	451.02
717.004	452.75
722.442	458.57
727.874	466.66
733.301	473.75
738.722	478.3
744.137	483.84
749.547	489.39
754.951	498.02
760.349	508.66
765.741	519.39
771.128	528.57
776.509	535.02
781.885	537.66
787.254	538.2
792.618	538.84
797.977	540.3
803.33	541.3
808.677	540.3
814.019	537.3
819.355	529.3
824.686	518.57
830.011	505.2
835.33	490.84
840.644	475.11
845.952	459.3
851.255	444.66
856.552	429.11
861.844	414.84
867.13	402.02
872.41	388.2
877.686	376.57
882.955	365.93
888.219	358.2
893.478	351.57
898.731	347.11
903.979	343.48
909.221	339.48
914.458	338.2
919.69	336.48
924.916	334.84
930.136	333.84
935.351	332.57
940.561	331.66
945.766	330.48
950.965	328.93
956.158	328.2
961.347	325.75
966.529	324.11
971.707	321.75
976.879	321.11
982.046	318.93
987.208	319.66
992.364	319.02
997.515	319.39
1002.66	320.11
1007.801	322.84
1012.936	324.93
1018.066	327.93
1023.19	331.84
1028.309	336.84
1033.423	339.48
1038.532	343.02
1043.636	344.39
1048.734	347.3
1053.827	349.75
1058.915	350.84
1063.998	350.93
1069.075	349.75
1074.147	348.57
1079.214	346.84
1084.276	342.02
1089.333	337.93
1094.385	333.84
1099.431	329.66
1104.472	324.3
1109.509	318.66
1114.54	313.02
1119.565	308.66
1124.586	304.75
1129.602	302.2
1134.613	299.3
1139.618	299.48
1144.619	300.2
1149.614	300.93
1154.604	301.2
1159.589	303.57
1164.57	305.3
1169.545	308.02
1174.515	308.93
1179.48	310.75
1184.44	310.93
1189.395	311.02
1194.345	310.11
1199.29	309.2
1204.23	308.39
1209.165	307.2
1214.095	306.48
1219.021	306.75
1223.941	305.3
1228.856	304.11
1233.766	301.02
1238.672	297.93
1243.572	294.84
1248.467	290.75
1253.358	286.75
1258.244	282.3
1263.124	278.93
1268	275.39
1272.871	271.02
1277.737	268.2
1282.599	266.11
1287.455	265.39
1292.306	265.57
1297.153	265.75
1301.995	265.75
1306.832	267.11
1311.664	267.66
1316.491	267.48
1321.314	266.75
1326.132	266.39
1330.945	266.2
1335.753	264.48
1340.556	262.84
1345.354	261.3
1350.148	258.66
1354.937	257.66
1359.722	254.75
1364.501	252.84
1369.276	251.84
1374.046	249.93
1378.811	247.02
1383.572	244.11
1388.327	240.75
1393.079	238.11
1397.825	235.3
1402.567	233.75
1407.304	231.2
1412.036	229.93
1416.764	230.02
1421.487	229.39
1426.205	228.93
1430.919	230.02
1435.628	231.3
1440.333	233.93
1445.032	235.3
1449.727	236.48
1454.418	237.48
1459.104	238.93
1463.785	239.93
1468.462	239.11
1473.134	240.11
1477.802	241.48
1482.465	242.39
1487.123	243.02
1491.777	244.02
1496.426	245.66
1501.071	246.57
1505.711	247.11
1510.347	247.2
1514.978	246.57
1519.604	246.48
1524.226	245.2
1528.844	244.39
1533.457	247.84
1538.065	253.02
1542.669	254.75
1547.269	251.84
1551.864	249.2
1556.454	245.39
1561.041	243.3
1565.622	241.48
1570.199	239.93
1574.772	238.11
1579.34	235.39
1583.904	228.02
1588.464	218.75
1593.019	212.48
1597.569	210.39
1602.115	208.57
1606.657	207.3
1611.195	205.48
1615.728	204.11
1620.256	202.93
1624.78	201.84
1629.3	201.11
1633.816	200.57
1638.327	200.39
1642.834	201.11
1647.336	201.93
1651.834	202.48
1656.328	204.39
1660.817	205.66
1665.302	207.57
1669.783	209.2
1674.259	210.48
1678.732	211.11
1683.199	211.48
1687.663	211.84
1692.122	209.48
1696.577	207.84
1701.028	206.3
1705.474	203.57
1709.917	200.75
1714.355	197.11
1718.788	192.2
1723.218	187.48
1727.643	183.39
1732.064	180.02
1736.481	176.02
1740.893	172.75
1745.301	170.02
1749.705	167.84
1754.105	165.2
1758.501	164.11
1762.893	163.57
1767.28	163.75
1771.663	163.57
1776.042	162.2
1780.417	161.3
1784.787	160.93
1789.154	161.11
1793.516	159.3
1797.874	157.02
1802.228	155.93
1806.578	152.75
1810.924	148.75
1815.266	145.39
1819.603	141.93
1823.937	140.2
1828.266	137.2
1832.591	133.84
1836.913	131.75
1841.23	130.11
1845.543	129.66
1849.852	129.11
1854.156	128.75
1858.457	128.2
1862.754	127.93
1867.047	128.48
1871.335	128.11
1875.62	129.48
1879.9	130.3
1884.177	130.84
1888.449	132.11
1892.718	132.57
1896.982	132.39
1901.243	133.3
1905.499	134.84
1909.752	136.57
1914	137.39
1918.245	138.66
1922.485	138.02
1926.722	137.84
1930.954	137.3
1935.183	137.02
1939.408	135.84
1943.628	134.48
1947.845	132.02
1952.058	129.57
1956.267	126.3
1960.472	123.57
1964.673	119.66
1968.87	117.11
1973.063	113.84
1977.252	111.57
1981.438	108.66
1985.619	106.39
1989.797	104.48
1993.971	103.02
1998.14	101.11
2002.306	100.3
2006.469	99.11
2010.627	98.3
2014.781	96.57
2018.932	96.48
2023.078	94.39
2027.221	92.57
2031.36	91.11
2035.495	90.48
2039.627	90.3
2043.754	89.84
2047.878	89.48
2051.998	89.75
2056.114	90.84
2060.226	91.75
2064.334	92.3
2068.439	93.93
2072.54	95.2
2076.637	96.66
2080.73	97.02
2084.82	97.57
2088.906	97.75
2092.988	96.93
2097.066	95.84
2101.14	94.2
2105.211	93.2
2109.278	92.02
2113.342	90.84
2117.401	89.57
2121.457	87.66
2125.509	86.66
2129.558	84.48
2133.602	82.39
2137.643	81.39
2141.681	80.02
2145.714	78.66
2149.744	76.75
2153.77	74.11
2157.793	72.02
2161.812	69.93
2165.827	68.3
2169.838	65.93
2173.846	64.3
2177.851	63.57
2181.851	61.2
2185.848	59.66
2189.841	57.84
2193.831	56.93
2197.817	57.02
2201.799	56.2
2205.778	56.2
2209.753	56.11
2213.725	55.93
2217.693	56.11
2221.657	56.39
2225.618	56.2
2229.575	55.66
2233.529	56.48
2237.479	56.3
2241.425	56.3
2245.368	55.84
2249.307	55.3
2253.243	54.02
2257.175	53.3
2261.104	52.39
2265.029	51.11
2268.95	50.93
2272.868	50.84
2276.783	49.3
2280.694	48.2
2284.601	46.11
2288.505	45.11
2292.405	44.2
2296.302	43.66
2300.195	43.84
2304.085	44.2
2307.971	47.57
2311.854	56.75
2315.734	67.39
2319.609	73.48
2323.482	74.02
2327.351	74.11
2331.216	72.84
2335.078	72.02
2338.937	71.02
2342.792	69.48
2346.643	66.93
2350.492	61.66
2354.336	50.84
2358.178	37.75
2362.015	30.2
2365.85	28.93
2369.681	28.39
2373.508	28.2
2377.333	27.66
2381.153	26.84
2384.971	26.84
2388.785	26.3
2392.595	25.2
2396.402	24.48
2400.206	24.48
2404.007	24.02
2407.804	22.11
2411.597	21.66
2415.388	20.84
2419.174	19.84
2422.958	19.39
2426.738	18.02
2430.515	18.02
2434.289	18.39
2438.059	17.48
2441.825	17.02
2445.589	16.02
2449.349	16.66
2453.106	15.3
2456.859	15.48
2460.61	15.3
2464.356	14.3
2468.1	13.66
2471.84	12.3
2475.577	11.48
2479.311	11.48
2483.041	10.93
2486.768	11.11
2490.492	10.57
2494.213	11.2
2497.93	11.84
2501.644	11.93
2505.355	12.48
2509.062	12.75
2512.766	13.02
2516.467	12.84
2520.165	12.75
2523.859	12.84
2527.551	12.66
2531.239	12.39
2534.923	11.93
2538.605	10.57
2542.283	10.11
2545.958	10.2
2549.63	10.2
2553.299	10.93
2556.964	10.93
2560.626	10.93
2564.285	10.2
2567.941	9.11
2571.594	8.66
2575.243	7.48
2578.89	7.11
2582.533	6.3
2586.173	5.75
2589.809	5.02
2593.443	3.57
2597.073	2.84
2600.701	2.3
2604.325	1.57
2607.946	1.48
2611.564	0.93
2615.178	0.84
2618.79	0.11
2622.398	0.02
2626.004	-0.61
2629.606	-1.7
2633.205	-1.52
2636.801	-2.07
2640.394	-3.61
2643.983	-4.61
2647.57	-4.89
2651.153	-5.89
2654.734	-6.34
2658.311	-6.25
2661.885	-6.8
2665.456	-7.52
2669.025	-7.16
2672.589	-8.34
2676.151	-8.7
2679.71	-8.43
2683.266	-8.25
2686.819	-9.16
2690.368	-9.25
2693.915	-9.61
2697.458	-10.43
2700.999	-11.25
2704.536	-11.43
2708.071	-12.34
2711.602	-12.43
2715.13	-12.43
2718.656	-12.89
2722.178	-12.61
2725.697	-12.07
2729.214	-11.16
2732.727	-11.7
2736.237	-11.25
2739.744	-10.34
2743.249	-9.8
2746.75	-9.43
2750.248	-10.07
2753.743	-10.43
2757.236	-10.43
2760.725	-10.98
2764.211	-11.07
2767.695	-11.98
2771.175	-11.89
2774.652	-12.61
2778.127	-13.61
2781.598	-14.8
2785.067	-16.25
2788.532	-15.7
2791.995	-16.25
2795.455	-16.98
2798.911	-17.25
2802.365	-17.52
2805.816	-17.8
2809.264	-17.61
2812.709	-17.98
2816.151	-18.07
2819.59	-18.25
2823.026	-16.61
2826.46	-17.07
2829.89	-16.8
2833.318	-17.07
2836.742	-17.52
2840.164	-18.52
2843.583	-18.89
2846.999	-19.16
2850.412	-19.25
2853.822	-19.89
2857.229	-19.8
2860.634	-20.43
2864.035	-19.89
2867.434	-20.52
2870.83	-19.98
2874.223	-20.07
2877.613	-19.98
2881	-20.07
2884.385	-20.98
2887.766	-21.52
2891.145	-21.89
2894.521	-22.52
2897.894	-23.89
2901.264	-25.25
2904.631	-26.07
2907.996	-26.8
2911.358	-27.25
2914.717	-27.98
2918.073	-28.7
2921.426	-29.61
2924.777	-29.61
2928.124	-29.89
2931.469	-30.16
2934.811	-30.07
2938.15	-30.34
2941.487	-30.34
2944.821	-30.16
2948.152	-30.52
2951.48	-30.34
2954.805	-30.16
2958.128	-30.07
2961.447	-30.43
2964.765	-30.61
2968.079	-31.07
2971.39	-30.89
2974.699	-31.34
2978.005	-30.98
2981.308	-31.89
2984.609	-31.8
2987.907	-32.43
2991.202	-33.07
2994.494	-33.34
2997.784	-33.89
3001.07	-34.34
3004.355	-34.52
3007.636	-35.89
3010.915	-36.16
3014.191	-37.52
3017.464	-37.34
3020.734	-38.07
3024.002	-37.98
3027.267	-38.52
3030.53	-38.52
3033.789	-39.07
3037.046	-39.16
3040.301	-39.16
3043.552	-38.89
3046.801	-39.07
3050.048	-38.25
3053.291	-38.89
3056.532	-38.8
3059.771	-38.89
3063.006	-38.52
3066.239	-38.43
3069.469	-37.89
3072.697	-38.34
3075.922	-37.98
3079.144	-37.61
3082.364	-37.61
3085.581	-38.25
3088.795	-38.07
3092.007	-38.61
3095.216	-39.07
3098.423	-39.89
3101.627	-39.98
3104.828	-40.7
3108.026	-39.98
3111.222	-41.16
3114.416	-41.7
3117.607	-42.61
3120.795	-43.07
3123.98	-44.43
3127.163	-44.34
3130.344	-44.7
3133.521	-44.34
3136.696	-44.98
3139.869	-45.07
3143.039	-46.52
3146.206	-46.07
3149.371	-46.8
3152.533	-46.43
3155.693	-46.8
3158.85	-45.8
3162.005	-46.16
3165.157	-46.25
3168.306	-46.25
3171.453	-46.25
3174.597	-45.98
3177.739	-45.16
3180.878	-45.52
3184.014	-45.07
3187.149	-44.52
3190.28	-44.16
3193.409	-44.98
3196.536	-44.07
3199.659	-43.89
3202.781	-44.07
3205.9	-44.07
3209.016	-44.61
3212.13	-45.07
3215.241	-45.07
3218.35	-45.43
3221.456	-45.8
3224.56	-45.8
3227.661	-45.7
3230.76	-46.7
3233.856	-47.43
3236.95	-48.25
3240.041	-49.16
3243.13	-49.43
3246.216	-49.8
3249.3	-50.07
3252.382	-50.61
3255.46	-51.25
3258.537	-52.34
3261.611	-52.34
3264.682	-52.25
3267.751	-51.43
3270.818	-52.07
3273.882	-52.16
3276.943	-51.98
3280.002	-51.8
3283.059	-51.8
3286.113	-51.52
3289.165	-51.43
3292.214	-50.89
3295.261	-51.07
3298.306	-51.43
3301.348	-51.43
3304.387	-50.25
3307.425	-49.52
3310.459	-49.8
3313.492	-49.61
3316.521	-49.7
3319.549	-48.89
3322.574	-49.07
3325.597	-48.34
3328.617	-48.52
3331.635	-48.61
3334.65	-49.34
3337.663	-49.34
3340.674	-49.07
3343.682	-49.34
3346.688	-49.25
3349.691	-49.7
3352.692	-50.52
3355.691	-50.43
3358.687	-51.16
3361.681	-51.43
3364.673	-51.7
3367.662	-51.61
3370.649	-52.61
3373.633	-53.43
3376.615	-53.52
3379.595	-54.16
3382.572	-54.07
3385.547	-53.98
3388.52	-54.7
3391.49	-55.16
3394.458	-54.98
3397.424	-54.98
3400.387	-55.52
3403.348	-55.34
3406.307	-55.43
3409.263	-55.34
3412.217	-55.43
3415.168	-55.43
3418.118	-55.43
3421.065	-55.34
3424.009	-54.52
3426.951	-54.07
3429.891	-53.8
3432.829	-53.52
3435.764	-53.25
3438.697	-52.7
3441.628	-52.43
3444.557	-51.8
3447.483	-51.7
3450.407	-51.7
3453.328	-51.52
3456.247	-51.7
3459.164	-51.98
3462.079	-51.89
3464.991	-51.8
3467.902	-51.52
3470.809	-51.89
3473.715	-52.16
3476.618	-53.25
3479.519	-53.61
3482.418	-54.25
3485.315	-53.98
3488.209	-54.7
3491.101	-55.43
3493.99	-55.8
3496.878	-55.52
3499.763	-56.16
3502.646	-56.98
3505.527	-57.25
3508.405	-57.34
3511.281	-57.52
3514.155	-57.7
3517.027	-57.89
3519.897	-57.61
3522.764	-56.98
3525.629	-57.07
3528.492	-57.61
3531.352	-56.7
3534.211	-55.8
3537.067	-55.34
3539.921	-54.61
3542.773	-54.43
3545.622	-54.25
3548.469	-53.8
3551.315	-53.8
3554.157	-53.25
3556.998	-53.16
3559.837	-52.98
3562.673	-53.7
3565.507	-53.89
3568.339	-53.98
3571.169	-54.16
3573.996	-54.16
3576.822	-53.98
3579.645	-54.07
3582.466	-53.89
3585.285	-54.98
3588.101	-55.16
3590.916	-55.89
3593.728	-55.61
3596.538	-56.07
3599.346	-56.34
3602.152	-56.43
3604.956	-56.98
3607.757	-57.25
3610.556	-57.7
3613.354	-58.34
3616.149	-58.61
3618.942	-58.98
3621.732	-58.34
3624.521	-59.07
3627.307	-59.34
3630.092	-59.89
3632.874	-60.07
3635.654	-59.7
3638.432	-59.07
3641.208	-59.34
3643.982	-59.61
3646.753	-59.34
3649.523	-58.8
3652.29	-59.52
3655.055	-60.07
3657.818	-59.61
3660.579	-59.07
3663.338	-59.43
3666.095	-59.16
3668.849	-59.98
3671.602	-59.98
3674.352	-59.43
3677.101	-59.8
3679.847	-59.61
3682.591	-59.07
3685.333	-58.07
3688.073	-58.43
3690.811	-58.07
3693.547	-57.89
3696.281	-58.07
3699.013	-57.98
3701.742	-57.89
3704.47	-58.61
3707.195	-58.43
3709.919	-59.16
3712.64	-59.7
3715.359	-59.89
3718.076	-60.52
3720.792	-61.16
3723.505	-61.34
3726.216	-61.89
3728.925	-62.07
3731.632	-62.43
3734.336	-62.07
3737.039	-61.8
3739.74	-60.61
3742.439	-60.25
3745.136	-61.07
3747.83	-59.89
3750.523	-59.8
3753.213	-59.43
3755.902	-58.89
3758.589	-58.34
3761.273	-57.61
3763.956	-57.61
3766.636	-57.7
3769.315	-57.98
3771.991	-59.16
3774.665	-60.89
3777.338	-60.89
3780.008	-60.98
3782.677	-60.8
3785.343	-61.16
3788.007	-61.52
3790.67	-61.8
3793.33	-61.16
3795.989	-60.98
3798.645	-61.34
3801.299	-60.61
3803.952	-57.98
3806.602	-58.7
3809.251	-58.7
3811.897	-58.89
3814.542	-58.89
3817.184	-58.7
3819.825	-59.16
3822.463	-59.43
3825.1	-59.98
3827.735	-60.07
3830.367	-59.8
3832.998	-59.98
3835.627	-59.25
3838.253	-59.34
3840.878	-59.7
3843.501	-59.52
3846.122	-59.7
3848.741	-59.25
3851.358	-59.89
3853.973	-58.61
3856.586	-57.52
3859.197	-55.43
3861.806	-52.7
3864.414	-47.8
3867.019	-39.16
3869.622	-27.07
3872.224	-14.52
3874.823	-4.16
3877.421	2.02
3880.016	6.39
3882.61	7.11
3885.202	6.66
3887.792	5.39
3890.38	3.02
3892.966	-2.34
3895.55	-10.52
3898.132	-22.34
3900.713	-35.43
3903.291	-45.7
3905.868	-52.89
3908.442	-57.25
3911.015	-58.8
3913.586	-59.8
3916.155	-60.52
3918.722	-60.98
3921.287	-60.98
3923.85	-61.89
3926.411	-61.8
3928.971	-61.52
3931.528	-61.52
3934.084	-60.52
3936.638	-60.16
3939.19	-60.89
3941.74	-60.7
3944.288	-59.89
3946.834	-59.25
3949.378	-58.43
3951.921	-57.8
3954.462	-57.16
3957	-56.52
3959.537	-56.52
3962.072	-56.43
3964.606	-56.34
3967.137	-55.16
3969.667	-55.07
3972.194	-55.43
3974.72	-56.16
3977.244	-56.52
3979.766	-55.89
3982.286	-56.43
3984.805	-56.89
3987.321	-57.16
3989.836	-57.7
3992.349	-57.52
3994.86	-58.34
3997.369	-58.43
3999.877	-58.61
4002.382	-58.89
4004.886	-59.7
4007.388	-60.89
4009.888	-61.52
4012.386	-61.89
4014.883	-61.89
4017.377	-61.52
4019.87	-61.89
4022.361	-61.34
4024.85	-60.89
4027.338	-60.7
4029.823	-60.52
4032.307	-60.07
4034.789	-59.61
4037.269	-58.89
4039.747	-57.8
4042.224	-57.43
4044.699	-57.25
4047.172	-56.52
4049.643	-56.8
4052.112	-55.98
4054.58	-56.52
4057.046	-55.43
4059.51	-55.25
4061.972	-55.07
4064.432	-55.25
4066.891	-55.7
4069.348	-56.16
4071.803	-56.43
4074.256	-56.7
4076.708	-56.7
4079.158	-57.89
4081.606	-57.89
4084.052	-59.34
4086.497	-59.25
4088.939	-59.43
4091.38	-59.89
4093.819	-49.7
4096.257	-39.7
4098.693	-29.61
4101.127	-20.52
4103.559	-11.7
4105.989	-3.25
4108.418	-3.16
4110.845	-3.52
4113.27	-4.34
4115.694	-4.61
4118.115	-4.43
4120.535	-15.07
4122.954	-25.07
4125.37	-35.61
4127.785	-45.34
4130.198	-54.16
4132.609	-63.05
4135.019	-63.36
4137.427	-62.62
4139.833	-62.25
4142.237	-62.08