File: Data/Raman/2017-08-24 - Glass, alluminum 108/Aluminum II [full set]/Alu-EC-Blank 30s,I=1, BC=3, 1sta _RamanShift_1.txt
Data from Alu-Blank 30s,I=1, BC=3, 1sta _RamanShift_1.txt Node

Date: Thu Aug 24 13:27:52 IDT 2017
User: aro
Spectrometer: QEPB0276
Trigger mode: 0
Integration Time (sec): 3.000000E1
Scans to average: 1
Electric dark correction enabled: true
Nonlinearity correction enabled: false
Boxcar width: 5
XAxis mode: Raman Shifts
Number of Pixels in Spectrum: 1044
>>>>>Begin Spectral Data<<<<<
160.701	176.12
166.742	273.27
172.777	373.62
178.805	462.79
184.826	534.62
190.841	594.76
196.849	703.31
202.85	814.85
208.845	926.12
214.833	1034.76
220.815	1132.67
226.789	1208.76
232.758	1256.31
238.719	1286.85
244.674	1310.4
250.623	1334.85
256.565	1361.03
262.5	1389.03
268.429	1414.67
274.351	1438.58
280.267	1462.22
286.176	1483.12
292.079	1505.12
297.975	1526.49
303.865	1544.94
309.748	1562.58
315.625	1580.94
321.495	1597.49
327.359	1610.67
333.217	1624.94
339.068	1642.85
344.912	1664.31
350.751	1696.67
356.583	1730.22
362.408	1758.03
368.227	1779.31
374.04	1798.76
379.847	1829.58
385.647	1890.22
391.44	1984.22
397.228	2078.76
403.009	2134.22
408.784	2152.22
414.553	2148.4
420.315	2134.22
426.071	2123.94
431.821	2115.76
437.565	2104.67
443.302	2077.58
449.033	2016.22
454.758	1921.22
460.477	1821.76
466.189	1755.12
471.896	1712.94
477.596	1670.31
483.29	1620.03
488.978	1560.67
494.66	1497.12
500.335	1430.76
506.005	1362.67
511.668	1293.67
517.325	1222.67
522.977	1150.49
528.622	1078.76
534.261	1012.94
539.894	957.4
545.521	914.67
551.141	884.4
556.756	861.58
562.365	843.4
567.968	830.03
573.565	821.22
579.155	813.85
584.74	806.85
590.319	801.85
595.892	795.94
601.459	790.49
607.02	788.03
612.575	790.85
618.124	806.76
623.667	829.85
629.204	841.94
634.735	841.49
640.261	832.76
645.781	823.12
651.294	813.31
656.802	804.31
662.304	795.58
667.8	783.94
673.29	763.67
678.775	731.67
684.254	693.22
689.726	665.4
695.193	649.76
700.655	642.85
706.11	640.03
711.56	639.31
717.004	641.22
722.442	646.22
727.874	652.22
733.301	659.49
738.722	663.58
744.137	668.03
749.547	673.67
754.951	680.12
760.349	687.22
765.741	694.85
771.128	699.76
776.509	703.67
781.885	704.4
787.254	703.03
792.618	701.31
797.977	702.31
803.33	703.31
808.677	701.4
814.019	696.94
819.355	689.76
824.686	679.67
830.011	668.94
835.33	655.58
840.644	641.22
845.952	627.58
851.255	614.03
856.552	599.67
861.844	585.76
867.13	572.85
872.41	559.85
877.686	548.85
882.955	538.22
888.219	530.03
893.478	525.03
898.731	519.85
903.979	516.49
909.221	513.58
914.458	511.49
919.69	509.22
924.916	507.76
930.136	507.49
935.351	505.58
940.561	504.58
945.766	501.49
950.965	497.76
956.158	495.4
961.347	491.12
966.529	487.85
971.707	483.94
976.879	480.67
982.046	477.58
987.208	475.85
992.364	474.85
997.515	474.49
1002.66	476.85
1007.801	478.85
1012.936	482.03
1018.066	486.03
1023.19	489.67
1028.309	493.76
1033.423	497.22
1038.532	499.49
1043.636	501.12
1048.734	502.49
1053.827	504.4
1058.915	504.4
1063.998	503.85
1069.075	501.76
1074.147	498.58
1079.214	496.67
1084.276	492.85
1089.333	488.49
1094.385	484.67
1099.431	480.67
1104.472	474.94
1109.509	468.67
1114.54	463.03
1119.565	458.4
1124.586	454.03
1129.602	451.49
1134.613	447.49
1139.618	446.22
1144.619	446.12
1149.614	447.03
1154.604	447.4
1159.589	448.94
1164.57	450.22
1169.545	451.58
1174.515	452.67
1179.48	454.22
1184.44	453.94
1189.395	454.67
1194.345	454.85
1199.29	454.94
1204.23	454.03
1209.165	453.67
1214.095	453.94
1219.021	453.22
1223.941	452.49
1228.856	450.12
1233.766	447.31
1238.672	444.94
1243.572	440.49
1248.467	435.22
1253.358	429.22
1258.244	423.49
1263.124	418.67
1268	413.85
1272.871	409.76
1277.737	405.85
1282.599	404.12
1287.455	404.03
1292.306	403.49
1297.153	403.49
1301.995	404.76
1306.832	406.03
1311.664	406.31
1316.491	406.03
1321.314	405.22
1326.132	403.22
1330.945	400.76
1335.753	397.94
1340.556	393.49
1345.354	390.12
1350.148	386.85
1354.937	383.85
1359.722	380.03
1364.501	377.94
1369.276	374.58
1374.046	371.49
1378.811	369.76
1383.572	367.03
1388.327	363.67
1393.079	360.76
1397.825	357.31
1402.567	355.58
1407.304	352.94
1412.036	351.67
1416.764	350.4
1421.487	350.76
1426.205	350.76
1430.919	350.85
1435.628	351.85
1440.333	353.94
1445.032	355.03
1449.727	356.76
1454.418	356.85
1459.104	356.22
1463.785	354.49
1468.462	352.67
1473.134	350.49
1477.802	349.85
1482.465	349.76
1487.123	349.49
1491.777	348.67
1496.426	348.58
1501.071	347.67
1505.711	347.67
1510.347	347.4
1514.978	348.12
1519.604	346.76
1524.226	345.4
1528.844	344.03
1533.457	346.85
1538.065	350.85
1542.669	352.67
1547.269	350.31
1551.864	347.03
1556.454	343.85
1561.041	341.85
1565.622	339.94
1570.199	339.76
1574.772	339.12
1579.34	336.58
1583.904	328.22
1588.464	320.03
1593.019	312.94
1597.569	310.49
1602.115	309.12
1606.657	306.49
1611.195	303.76
1615.728	301.4
1620.256	299.12
1624.78	296.4
1629.3	295.31
1633.816	294.67
1638.327	293.85
1642.834	294.31
1647.336	294.12
1651.834	294.03
1656.328	294.94
1660.817	295.49
1665.302	295.67
1669.783	295.12
1674.259	294.94
1678.732	293.67
1683.199	292.49
1687.663	290.58
1692.122	287.67
1696.577	284.4
1701.028	281.58
1705.474	278.12
1709.917	274.94
1714.355	271.4
1718.788	267.22
1723.218	262.58
1727.643	258.76
1732.064	254.76
1736.481	250.31
1740.893	246.31
1745.301	243.58
1749.705	240.4
1754.105	236.76
1758.501	233.31
1762.893	230.03
1767.28	228.49
1771.663	226.4
1776.042	224.49
1780.417	222.76
1784.787	221.85
1789.154	220.12
1793.516	218.58
1797.874	215.76
1802.228	213.94
1806.578	211.03
1810.924	208.4
1815.266	204.94
1819.603	202.03
1823.937	200.03
1828.266	197.58
1832.591	195.22
1836.913	194.31
1841.23	192.22
1845.543	192.12
1849.852	191.58
1854.156	191.85
1858.457	192.22
1862.754	192.22
1867.047	192.94
1871.335	192.67
1875.62	193.22
1879.9	193.22
1884.177	192.31
1888.449	191.67
1892.718	191.31
1896.982	190.58
1901.243	190.76
1905.499	189.67
1909.752	189.4
1914	189.22
1918.245	187.85
1922.485	186.4
1926.722	184.85
1930.954	184.67
1935.183	183.94
1939.408	181.67
1943.628	179.67
1947.845	176.67
1952.058	174.31
1956.267	171.94
1960.472	168.85
1964.673	166.67
1968.87	163.94
1973.063	161.76
1977.252	158.76
1981.438	155.94
1985.619	153.67
1989.797	152.12
1993.971	151.31
1998.14	150.03
2002.306	149.03
2006.469	148.03
2010.627	146.58
2014.781	145.03
2018.932	143.03
2023.078	142.03
2027.221	140.22
2031.36	138.31
2035.495	137.12
2039.627	135.49
2043.754	134.76
2047.878	133.58
2051.998	133.12
2056.114	132.85
2060.226	132.85
2064.334	133.22
2068.439	132.03
2072.54	132.58
2076.637	133.03
2080.73	131.94
2084.82	131.12
2088.906	130.03
2092.988	128.4
2097.066	126.76
2101.14	124.94
2105.211	123.31
2109.278	121.31
2113.342	120.58
2117.401	118.76
2121.457	117.49
2125.509	116.58
2129.558	115.03
2133.602	113.31
2137.643	112.12
2141.681	111.31
2145.714	110.85
2149.744	110.4
2153.77	109.22
2157.793	107.22
2161.812	105.76
2165.827	103.94
2169.838	102.85
2173.846	101.58
2177.851	100.31
2181.851	99.03
2185.848	96.94
2189.841	94.94
2193.831	93.22
2197.817	92.03
2201.799	91.03
2205.778	90.22
2209.753	89.58
2213.725	88.49
2217.693	88.31
2221.657	88.94
2225.618	87.85
2229.575	86.49
2233.529	86.4
2237.479	86.76
2241.425	86.31
2245.368	85.49
2249.307	84.76
2253.243	83.94
2257.175	82.58
2261.104	80.94
2265.029	79.31
2268.95	79.03
2272.868	79.4
2276.783	78.03
2280.694	76.31
2284.601	75.12
2288.505	75.31
2292.405	74.67
2296.302	74.4
2300.195	74.22
2304.085	74.94
2307.971	77.58
2311.854	86.03
2315.734	95.85
2319.609	101.67
2323.482	101.4
2327.351	101.22
2331.216	99.58
2335.078	98.67
2338.937	97.49
2342.792	96.4
2346.643	93.67
2350.492	89.12
2354.336	78.67
2358.178	67.22
2362.015	59.94
2365.85	58.76
2369.681	57.67
2373.508	56.94
2377.333	56.12
2381.153	55.12
2384.971	54.85
2388.785	54.76
2392.595	53.67
2396.402	53.12
2400.206	51.58
2404.007	50.85
2407.804	49.03
2411.597	48.22
2415.388	47.58
2419.174	47.22
2422.958	46.58
2426.738	45.31
2430.515	44.58
2434.289	44.67
2438.059	43.94
2441.825	43.49
2445.589	43.03
2449.349	43.31
2453.106	42.49
2456.859	42.22
2460.61	41.03
2464.356	40.12
2468.1	39.31
2471.84	38.49
2475.577	38.03
2479.311	37.94
2483.041	37.67
2486.768	36.94
2490.492	36.03
2494.213	36.31
2497.93	36.49
2501.644	36.85
2505.355	36.4
2509.062	36.22
2512.766	36.49
2516.467	35.94
2520.165	35.4
2523.859	35.22
2527.551	35.22
2531.239	35.22
2534.923	34.31
2538.605	32.49
2542.283	31.58
2545.958	32.12
2549.63	31.58
2553.299	30.76
2556.964	29.94
2560.626	28.94
2564.285	28.4
2567.941	27.22
2571.594	26.12
2575.243	24.85
2578.89	24.03
2582.533	23.4
2586.173	22.58
2589.809	22.31
2593.443	21.94
2597.073	21.58
2600.701	21.67
2604.325	21.03
2607.946	20.94
2611.564	20.22
2615.178	20.49
2618.79	20.4
2622.398	20.13
2626.004	19.22
2629.606	18.12
2633.205	17.49
2636.801	16.4
2640.394	15.12
2643.983	13.94
2647.57	13.31
2651.153	13.12
2654.734	12.12
2658.311	11.31
2661.885	9.94
2665.456	9.22
2669.025	8.94
2672.589	7.85
2676.151	7.03
2679.71	6.4
2683.266	5.67
2686.819	4.49
2690.368	3.76
2693.915	3.22
2697.458	3.12
2700.999	2.76
2704.536	2.4
2708.071	1.94
2711.602	1.76
2715.13	2.03
2718.656	2.12
2722.178	2.67
2725.697	3.03
2729.214	3.03
2732.727	2.58
2736.237	2.31
2739.744	2.58
2743.249	2.58
2746.75	2.22
2750.248	1.94
2753.743	1.22
2757.236	0.03
2760.725	-1.51
2764.211	-2.42
2767.695	-3.33
2771.175	-3.42
2774.652	-4.15
2778.127	-5.06
2781.598	-5.42
2785.067	-6.24
2788.532	-6.6
2791.995	-6.78
2795.455	-6.97
2798.911	-6.33
2802.365	-6.42
2805.816	-5.88
2809.264	-5.97
2812.709	-6.33
2816.151	-6.51
2819.59	-6.87
2823.026	-6.6
2826.46	-6.97
2829.89	-6.78
2833.318	-6.88
2836.742	-7.15
2840.164	-7.69
2843.583	-8.6
2846.999	-8.6
2850.412	-8.51
2853.822	-8.6
2857.229	-8.6
2860.634	-8.69
2864.035	-9.51
2867.434	-10.69
2870.83	-11.15
2874.223	-12.24
2877.613	-12.42
2881	-12.78
2884.385	-13.97
2887.766	-15.15
2891.145	-16.6
2894.521	-17.97
2897.894	-19.69
2901.264	-20.33
2904.631	-21.24
2907.996	-21.42
2911.358	-21.15
2914.717	-21.97
2918.073	-23.15
2921.426	-23.42
2924.777	-22.88
2928.124	-22.6
2931.469	-22.69
2934.811	-22.24
2938.15	-21.78
2941.487	-21.51
2944.821	-22.06
2948.152	-22.33
2951.48	-22.24
2954.805	-21.78
2958.128	-22.24
2961.447	-22.42
2964.765	-22.6
2968.079	-22.78
2971.39	-22.78
2974.699	-23.42
2978.005	-23.6
2981.308	-23.88
2984.609	-24.78
2987.907	-25.33
2991.202	-26.06
2994.494	-26.51
2997.784	-27.6
3001.07	-28.06
3004.355	-28.51
3007.636	-30.33
3010.915	-31.06
3014.191	-32.06
3017.464	-32.15
3020.734	-32.97
3024.002	-33.33
3027.267	-34.42
3030.53	-34.24
3033.789	-35.15
3037.046	-35.69
3040.301	-35.51
3043.552	-34.6
3046.801	-34.51
3050.048	-33.97
3053.291	-34.6
3056.532	-34.15
3059.771	-34.24
3063.006	-33.06
3066.239	-33.24
3069.469	-32.51
3072.697	-32.88
3075.922	-33.42
3079.144	-33.6
3082.364	-34.15
3085.581	-34.24
3088.795	-34.42
3092.007	-35.33
3095.216	-35.51
3098.423	-35.97
3101.627	-36.33
3104.828	-36.78
3108.026	-36.88
3111.222	-38.33
3114.416	-38.78
3117.607	-39.15
3120.795	-40.42
3123.98	-41.15
3127.163	-40.97
3130.344	-41.33
3133.521	-41.06
3136.696	-41.24
3139.869	-42.06
3143.039	-42.42
3146.206	-41.69
3149.371	-42.51
3152.533	-42.24
3155.693	-42.15
3158.85	-41.69
3162.005	-42.15
3165.157	-42.6
3168.306	-44.15
3171.453	-44.42
3174.597	-43.78
3177.739	-43.24
3180.878	-43.78
3184.014	-43.51
3187.149	-43.69
3190.28	-43.24
3193.409	-43.78
3196.536	-43.06
3199.659	-43.15
3202.781	-42.88
3205.9	-43.24
3209.016	-43.88
3212.13	-44.51
3215.241	-44.6
3218.35	-44.88
3221.456	-45.33
3224.56	-45.78
3227.661	-45.88
3230.76	-46.42
3233.856	-47.33
3236.95	-47.69
3240.041	-48.51
3243.13	-48.33
3246.216	-48.6
3249.3	-48.88
3252.382	-48.97
3255.46	-49.42
3258.537	-49.88
3261.611	-49.97
3264.682	-50.24
3267.751	-48.88
3270.818	-49.24
3273.882	-49.06
3276.943	-49.06
3280.002	-49.06
3283.059	-48.51
3286.113	-48.42
3289.165	-47.69
3292.214	-47.15
3295.261	-47.51
3298.306	-48.06
3301.348	-48.69
3304.387	-48.33
3307.425	-47.78
3310.459	-48.51
3313.492	-48.42
3316.521	-49.24
3319.549	-49.15
3322.574	-49.51
3325.597	-50.24
3328.617	-50.42
3331.635	-49.88
3334.65	-50.24
3337.663	-50.15
3340.674	-50.69
3343.682	-50.78
3346.688	-50.78
3349.691	-50.97
3352.692	-51.51
3355.691	-51.88
3358.687	-52.15
3361.681	-53.06
3364.673	-53.51
3367.662	-53.6
3370.649	-54.42
3373.633	-54.6
3376.615	-54.51
3379.595	-54.78
3382.572	-54.24
3385.547	-53.78
3388.52	-53.97
3391.49	-53.69
3394.458	-52.06
3397.424	-52.42
3400.387	-52.51
3403.348	-52.24
3406.307	-52.15
3409.263	-52.24
3412.217	-52.15
3415.168	-51.78
3418.118	-52.15
3421.065	-51.97
3424.009	-52.06
3426.951	-52.06
3429.891	-51.6
3432.829	-51.15
3435.764	-51.24
3438.697	-51.69
3441.628	-51.33
3444.557	-51.69
3447.483	-52.06
3450.407	-51.88
3453.328	-52.42
3456.247	-52.15
3459.164	-52.33
3462.079	-51.97
3464.991	-52.24
3467.902	-52.69
3470.809	-52.33
3473.715	-53.06
3476.618	-53.24
3479.519	-53.51
3482.418	-54.06
3485.315	-53.69
3488.209	-54.33
3491.101	-55.15
3493.99	-55.6
3496.878	-55.24
3499.763	-54.97
3502.646	-55.06
3505.527	-54.88
3508.405	-55.42
3511.281	-55.6
3514.155	-55.78
3517.027	-55.51
3519.897	-55.42
3522.764	-54.97
3525.629	-55.33
3528.492	-56.33
3531.352	-55.88
3534.211	-55.78
3537.067	-55.88
3539.921	-55.6
3542.773	-55.97
3545.622	-56.15
3548.469	-56.42
3551.315	-56.42
3554.157	-56.51
3556.998	-56.6
3559.837	-55.97
3562.673	-56.33
3565.507	-56.42
3568.339	-56.69
3571.169	-57.42
3573.996	-57.42
3576.822	-56.97
3579.645	-57.15
3582.466	-56.78
3585.285	-57.33
3588.101	-57.24
3590.916	-58.51
3593.728	-58.24
3596.538	-58.6
3599.346	-58.42
3602.152	-57.24
3604.956	-57.6
3607.757	-57.06
3610.556	-56.88
3613.354	-56.88
3616.149	-57.06
3618.942	-57.15
3621.732	-56.24
3624.521	-57.15
3627.307	-57.51
3630.092	-57.69
3632.874	-58.24
3635.654	-58.06
3638.432	-58.6
3641.208	-59.06
3643.982	-59.78
3646.753	-59.6
3649.523	-60.15
3652.29	-60.33
3655.055	-60.24
3657.818	-60.06
3660.579	-59.69
3663.338	-60.15
3666.095	-60.33
3668.849	-61.15
3671.602	-61.15
3674.352	-60.78
3677.101	-61.06
3679.847	-60.06
3682.591	-60.51
3685.333	-60.06
3688.073	-59.78
3690.811	-60.15
3693.547	-59.15
3696.281	-58.51
3699.013	-58.51
3701.742	-58.6
3704.47	-59.51
3707.195	-59.33
3709.919	-60.06
3712.64	-59.51
3715.359	-58.97
3718.076	-58.97
3720.792	-59.15
3723.505	-59.51
3726.216	-59.6
3728.925	-59.15
3731.632	-58.78
3734.336	-57.78
3737.039	-57.6
3739.74	-56.33
3742.439	-56.69
3745.136	-57.69
3747.83	-57.97
3750.523	-57.24
3753.213	-56.88
3755.902	-57.15
3758.589	-56.78
3761.273	-56.78
3763.956	-57.33
3766.636	-57.78
3769.315	-58.51
3771.991	-59.78
3774.665	-61.88
3777.338	-61.78
3780.008	-62.33
3782.677	-62.78
3785.343	-62.78
3788.007	-62.69
3790.67	-62.97
3793.33	-62.51
3795.989	-61.78
3798.645	-62.06
3801.299	-60.51
3803.952	-58.06
3806.602	-58.42
3809.251	-58.88
3811.897	-58.69
3814.542	-59.15
3817.184	-59.69
3819.825	-60.15
3822.463	-60.15
3825.1	-60.69
3827.735	-60.78
3830.367	-61.15
3832.998	-61.06
3835.627	-60.42
3838.253	-60.06
3840.878	-60.6
3843.501	-59.97
3846.122	-59.69
3848.741	-59.24
3851.358	-59.51
3853.973	-58.51
3856.586	-57.51
3859.197	-55.69
3861.806	-53.33
3864.414	-49.33
3867.019	-41.88
3869.622	-32.42
3872.224	-21.33
3874.823	-12.06
3877.421	-6.06
3880.016	-3.06
3882.61	-2.42
3885.202	-2.42
3887.792	-3.78
3890.38	-5.97
3892.966	-10.69
3895.55	-17.78
3898.132	-26.6
3900.713	-38.15
3903.291	-47.88
3905.868	-54.24
3908.442	-57.69
3911.015	-59.15
3913.586	-60.15
3916.155	-60.88
3918.722	-60.97
3921.287	-60.97
3923.85	-61.51
3926.411	-61.88
3928.971	-61.97
3931.528	-61.33
3934.084	-61.24
3936.638	-61.15
3939.19	-61.24
3941.74	-61.24
3944.288	-60.69
3946.834	-60.06
3949.378	-59.24
3951.921	-58.69
3954.462	-58.15
3957	-57.33
3959.537	-57.42
3962.072	-56.6
3964.606	-55.78
3967.137	-55.15
3969.667	-54.6
3972.194	-54.15
3974.72	-54.42
3977.244	-54.69
3979.766	-54.42
3982.286	-54.78
3984.805	-55.24
3987.321	-55.69
3989.836	-56.15
3992.349	-56.15
3994.86	-56.78
3997.369	-57.06
3999.877	-57.69
4002.382	-58.88
4004.886	-58.97
4007.388	-59.88
4009.888	-60.88
4012.386	-61.15
4014.883	-61.42
4017.377	-61.88
4019.87	-62.88
4022.361	-63.15
4024.85	-63.69
4027.338	-63.6
4029.823	-63.06
4032.307	-63.24
4034.789	-62.51
4037.269	-61.42
4039.747	-60.88
4042.224	-60.15
4044.699	-59.69
4047.172	-59.24
4049.643	-58.6
4052.112	-57.24
4054.58	-56.69
4057.046	-56.24
4059.51	-55.78
4061.972	-55.88
4064.432	-56.15
4066.891	-56.33
4069.348	-56.97
4071.803	-57.06
4074.256	-57.15
4076.708	-57.6
4079.158	-58.97
4081.606	-59.42
4084.052	-59.78
4086.497	-59.69
4088.939	-59.69
4091.38	-59.42
4093.819	-49.15
4096.257	-39.06
4098.693	-28.97
4101.127	-18.69
4103.559	-10.15
4105.989	-1.24
4108.418	-0.97
4110.845	-1.88
4113.27	-2.51
4115.694	-3.15
4118.115	-3.6
4120.535	-13.97
4122.954	-24.06
4125.37	-34.88
4127.785	-45.15
4130.198	-53.78
4132.609	-62.78
4135.019	-63.54
4137.427	-62.75
4139.833	-62.73
4142.237	-62.54