File: Data/Raman/2017-08-24 - Glass, alluminum 108/Aluminum II [full set]/Alu-EC108 30s,I=1, BC=3, 1sta _RamanShift_2.txt
Data from Alu-EC108 30s,I=1, BC=3, 1sta _RamanShift_2.txt Node

Date: Thu Aug 24 13:37:51 IDT 2017
User: aro
Spectrometer: QEPB0276
Trigger mode: 0
Integration Time (sec): 3.000000E1
Scans to average: 1
Electric dark correction enabled: true
Nonlinearity correction enabled: false
Boxcar width: 5
XAxis mode: Raman Shifts
Number of Pixels in Spectrum: 1044
>>>>>Begin Spectral Data<<<<<
160.701	229.67
166.742	366.5
172.777	512.38
178.805	644.5
184.826	753.8
190.841	843.86
196.849	1004.68
202.85	1169.59
208.845	1337.41
214.833	1500.32
220.815	1645.41
226.789	1758.5
232.758	1832.95
238.719	1877.77
244.674	1910.32
250.623	1943.23
256.565	1978.5
262.5	2010.77
268.429	2041.32
274.351	2068.86
280.267	2097.14
286.176	2124.05
292.079	2148.86
297.975	2171.05
303.865	2195.23
309.748	2216.68
315.625	2235.86
321.495	2254.41
327.359	2271.95
333.217	2288.05
339.068	2303.95
344.912	2324.77
350.751	2351.32
356.583	2385.32
362.408	2413.14
368.227	2430.5
374.04	2448.23
379.847	2479.68
385.647	2537.77
391.44	2632.59
397.228	2729.86
403.009	2787.5
408.784	2801.68
414.553	2800.59
420.315	2785.68
426.071	2773.86
431.821	2765.41
437.565	2751.59
443.302	2720.59
449.033	2658.68
454.758	2558.23
460.477	2454.59
466.189	2385.95
471.896	2343.95
477.596	2298.95
483.29	2245.59
488.978	2184.95
494.66	2119.5
500.335	2051.23
506.005	1979.14
511.668	1905.77
517.325	1829.86
522.977	1752.23
528.622	1674.32
534.261	1603.77
539.894	1545.41
545.521	1500.14
551.141	1466.95
556.756	1440.32
562.365	1420.95
567.968	1406.14
573.565	1393.95
579.155	1386.23
584.74	1377.95
590.319	1370.41
595.892	1361.68
601.459	1352.32
607.02	1347.32
612.575	1347.86
618.124	1361.05
623.667	1377.95
629.204	1388.5
634.735	1388.5
640.261	1378.95
645.781	1366.5
651.294	1353.59
656.802	1342.77
662.304	1331.59
667.8	1317.05
673.29	1295.14
678.775	1261.05
684.254	1224.23
689.726	1193.32
695.193	1172.14
700.655	1161.05
706.11	1153.41
711.56	1150.77
717.004	1148.95
722.442	1150.68
727.874	1156.41
733.301	1161.41
738.722	1162.59
744.137	1163.68
749.547	1168.5
754.951	1176.05
760.349	1183.59
765.741	1193.5
771.128	1200.05
776.509	1205.41
781.885	1207.59
787.254	1204.32
792.618	1200.95
797.977	1202.23
803.33	1200.5
808.677	1196.86
814.019	1189.32
819.355	1180.05
824.686	1169.5
830.011	1156.32
835.33	1142.41
840.644	1126.14
845.952	1111.32
851.255	1097.14
856.552	1081.41
861.844	1067.68
867.13	1053.05
872.41	1038.86
877.686	1025.5
882.955	1011.32
888.219	1000.68
893.478	990.95
898.731	981.32
903.979	975.77
909.221	970.68
914.458	966.68
919.69	963.86
924.916	960.59
930.136	959.86
935.351	958.32
940.561	955.05
945.766	951.59
950.965	947.41
956.158	944.77
961.347	937.68
966.529	931.05
971.707	925.41
976.879	919.95
982.046	916.23
987.208	913.23
992.364	911.05
997.515	911.86
1002.66	911.41
1007.801	913.95
1012.936	916.86
1018.066	921.5
1023.19	925.32
1028.309	927.59
1033.423	927.41
1038.532	927.95
1043.636	926.68
1048.734	924.59
1053.827	921.59
1058.915	919.95
1063.998	916.86
1069.075	914.68
1074.147	910.32
1079.214	906.14
1084.276	901.59
1089.333	898.32
1094.385	892.59
1099.431	887.41
1104.472	880.5
1109.509	873.32
1114.54	865.14
1119.565	858.23
1124.586	850.41
1129.602	843.86
1134.613	837.86
1139.618	835.59
1144.619	831.14
1149.614	828.86
1154.604	827.77
1159.589	826.95
1164.57	825.86
1169.545	826.23
1174.515	824.59
1179.48	823.86
1184.44	822.86
1189.395	821.5
1194.345	818.68
1199.29	818.23
1204.23	818.05
1209.165	816.23
1214.095	817.86
1219.021	818.5
1223.941	815.68
1228.856	813.77
1233.766	809.05
1238.672	803.32
1243.572	797.59
1248.467	789.41
1253.358	779.86
1258.244	769.41
1263.124	760.23
1268	749.68
1272.871	741.05
1277.737	737.41
1282.599	732.77
1287.455	730.41
1292.306	728.95
1297.153	729.77
1301.995	730.05
1306.832	732.32
1311.664	733.23
1316.491	731.05
1321.314	729.41
1326.132	727.77
1330.945	720.68
1335.753	713.86
1340.556	705.95
1345.354	698.77
1350.148	688.59
1354.937	681.5
1359.722	671.59
1364.501	662.77
1369.276	657.23
1374.046	649.32
1378.811	640.41
1383.572	634.14
1388.327	628.95
1393.079	624.68
1397.825	619.77
1402.567	617.41
1407.304	613.77
1412.036	612.95
1416.764	612.32
1421.487	610.59
1426.205	612.32
1430.919	614.59
1435.628	617.77
1440.333	619.59
1445.032	621.41
1449.727	622.68
1454.418	622.5
1459.104	621.95
1463.785	620.59
1468.462	618.41
1473.134	618.32
1477.802	615.5
1482.465	612.59
1487.123	611.14
1491.777	608.68
1496.426	605.23
1501.071	603.23
1505.711	601.14
1510.347	598.32
1514.978	594.59
1519.604	591.41
1524.226	585.77
1528.844	580.95
1533.457	580.95
1538.065	580.95
1542.669	579.77
1547.269	575.14
1551.864	568.95
1556.454	562.05
1561.041	557.59
1565.622	554.41
1570.199	551.14
1574.772	548.14
1579.34	545.77
1583.904	538.14
1588.464	527.95
1593.019	518.77
1597.569	515.5
1602.115	512.86
1606.657	510.5
1611.195	506.68
1615.728	503.23
1620.256	500.86
1624.78	499.05
1629.3	497.41
1633.816	496.14
1638.327	496.23
1642.834	498.59
1647.336	499.41
1651.834	500.23
1656.328	501.59
1660.817	503.41
1665.302	504.5
1669.783	504.05
1674.259	502.95
1678.732	499.95
1683.199	496.5
1687.663	492.05
1692.122	486.23
1696.577	479.68
1701.028	473.32
1705.474	467.41
1709.917	462.05
1714.355	455.23
1718.788	447.41
1723.218	440.41
1727.643	434.05
1732.064	427.41
1736.481	420.68
1740.893	415.23
1745.301	410.32
1749.705	405.14
1754.105	400.41
1758.501	395.86
1762.893	392.59
1767.28	391.5
1771.663	388.59
1776.042	386.95
1780.417	385.14
1784.787	384.23
1789.154	381.95
1793.516	379.23
1797.874	374.86
1802.228	369.95
1806.578	364.5
1810.924	358.95
1815.266	353.68
1819.603	349.41
1823.937	344.68
1828.266	341.41
1832.591	336.95
1836.913	334.05
1841.23	331.59
1845.543	331.05
1849.852	331.23
1854.156	331.23
1858.457	331.5
1862.754	331.41
1867.047	332.32
1871.335	331.68
1875.62	332.05
1879.9	332.59
1884.177	332.77
1888.449	333.05
1892.718	334.5
1896.982	334.23
1901.243	333.86
1905.499	333.95
1909.752	333.95
1914	333.32
1918.245	333.5
1922.485	332.05
1926.722	331.05
1930.954	329.05
1935.183	327.68
1939.408	324.23
1943.628	319.86
1947.845	315.23
1952.058	310.77
1956.267	305.23
1960.472	298.59
1964.673	292.77
1968.87	287.23
1973.063	281.86
1977.252	276.86
1981.438	271.23
1985.619	266.23
1989.797	264.14
1993.971	261.86
1998.14	259.32
2002.306	256.95
2006.469	255.86
2010.627	253.68
2014.781	251.86
2018.932	249.14
2023.078	246.32
2027.221	244.14
2031.36	241.68
2035.495	239.41
2039.627	237.32
2043.754	234.86
2047.878	233.95
2051.998	233.5
2056.114	233.14
2060.226	232.68
2064.334	233.68
2068.439	234.86
2072.54	235.23
2076.637	236.05
2080.73	236.23
2084.82	236.41
2088.906	235.77
2092.988	234.5
2097.066	231.5
2101.14	230.86
2105.211	228.32
2109.278	225.41
2113.342	222.68
2117.401	220.59
2121.457	218.05
2125.509	214.5
2129.558	211.77
2133.602	208.77
2137.643	206.5
2141.681	204.59
2145.714	199.95
2149.744	197.32
2153.77	194.59
2157.793	191.68
2161.812	187.95
2165.827	184.86
2169.838	182.41
2173.846	179.05
2177.851	176.86
2181.851	173.95
2185.848	171.59
2189.841	169.86
2193.831	168.5
2197.817	166.68
2201.799	164.95
2205.778	164.59
2209.753	164.05
2213.725	163.32
2217.693	163.05
2221.657	163.05
2225.618	162.86
2229.575	161.77
2233.529	160.95
2237.479	159.86
2241.425	158.14
2245.368	156.59
2249.307	155.14
2253.243	152.32
2257.175	149.86
2261.104	148.05
2265.029	145.59
2268.95	143.5
2272.868	142.41
2276.783	140.41
2280.694	138.32
2284.601	136.95
2288.505	136.59
2292.405	134.5
2296.302	134.32
2300.195	133.05
2304.085	133.05
2307.971	135.23
2311.854	142.41
2315.734	150.95
2319.609	156.77
2323.482	156.14
2327.351	155.5
2331.216	152.59
2335.078	151.05
2338.937	148.68
2342.792	147.41
2346.643	144.05
2350.492	139.41
2354.336	129.41
2358.178	118.14
2362.015	109.95
2365.85	108.32
2369.681	106.86
2373.508	106.14
2377.333	105.77
2381.153	105.05
2384.971	104.95
2388.785	104.41
2392.595	103.23
2396.402	101.95
2400.206	101.41
2404.007	100.77
2407.804	99.23
2411.597	98.59
2415.388	98.41
2419.174	98.23
2422.958	98.5
2426.738	96.86
2430.515	96.5
2434.289	96.86
2438.059	96.86
2441.825	95.68
2445.589	94.59
2449.349	94.77
2453.106	93.68
2456.859	92.68
2460.61	91.32
2464.356	89.59
2468.1	89.41
2471.84	87.59
2475.577	85.86
2479.311	84.86
2483.041	84.32
2486.768	84.77
2490.492	83.86
2494.213	82.86
2497.93	82.23
2501.644	81.14
2505.355	80.32
2509.062	79.59
2512.766	79.59
2516.467	79.41
2520.165	77.86
2523.859	77.05
2527.551	75.5
2531.239	74.86
2534.923	74.5
2538.605	73.5
2542.283	73.32
2545.958	73.5
2549.63	72.23
2553.299	72.05
2556.964	71.32
2560.626	71.23
2564.285	70.5
2567.941	69.23
2571.594	68.14
2575.243	67.41
2578.89	66.41
2582.533	65.23
2586.173	63.86
2589.809	63.5
2593.443	61.77
2597.073	60.05
2600.701	58.68
2604.325	56.95
2607.946	56.41
2611.564	55.23
2615.178	53.95
2618.79	52.41
2622.398	50.77
2626.004	49.5
2629.606	47.59
2633.205	46.41
2636.801	45.05
2640.394	43.68
2643.983	42.41
2647.57	40.86
2651.153	39.5
2654.734	38.59
2658.311	38.14
2661.885	37.23
2665.456	36.5
2669.025	36.05
2672.589	35.05
2676.151	34.23
2679.71	33.68
2683.266	33.05
2686.819	32.05
2690.368	31.23
2693.915	30.23
2697.458	29.05
2700.999	27.77
2704.536	26.77
2708.071	25.14
2711.602	24.5
2715.13	24.14
2718.656	22.77
2722.178	22.5
2725.697	22.41
2729.214	22.23
2732.727	21.23
2736.237	21.14
2739.744	21.41
2743.249	20.86
2746.75	21.14
2750.248	20.41
2753.743	18.59
2757.236	18.05
2760.725	16.41
2764.211	15.59
2767.695	15.05
2771.175	14.95
2774.652	13.86
2778.127	12.95
2781.598	12.14
2785.067	10.77
2788.532	10.23
2791.995	10.77
2795.455	10.41
2798.911	10.68
2802.365	10.5
2805.816	10.23
2809.264	9.68
2812.709	9.68
2816.151	9.32
2819.59	9.14
2823.026	9.95
2826.46	9.59
2829.89	9.41
2833.318	9.68
2836.742	10.05
2840.164	9.05
2843.583	8.32
2846.999	8.14
2850.412	8.05
2853.822	8.05
2857.229	7.95
2860.634	7.41
2864.035	7.23
2867.434	5.95
2870.83	4.86
2874.223	2.86
2877.613	2.32
2881	1.5
2884.385	0.05
2887.766	-1.5
2891.145	-3.41
2894.521	-4.77
2897.894	-6.5
2901.264	-7.77
2904.631	-8.68
2907.996	-9.32
2911.358	-9.86
2914.717	-10.95
2918.073	-11.59
2921.426	-11.59
2924.777	-11.23
2928.124	-11.68
2931.469	-12.23
2934.811	-12.41
2938.15	-12.59
2941.487	-12.59
2944.821	-12.95
2948.152	-12.5
2951.48	-12.32
2954.805	-12.95
2958.128	-13.5
2961.447	-14.14
2964.765	-14.23
2968.079	-14.5
2971.39	-14.77
2974.699	-15.23
2978.005	-15.77
2981.308	-16.59
2984.609	-18.14
2987.907	-19.14
2991.202	-19.5
2994.494	-20.32
2997.784	-20.95
3001.07	-21.41
3004.355	-22.41
3007.636	-24.05
3010.915	-24.86
3014.191	-26.23
3017.464	-26.5
3020.734	-27.05
3024.002	-27.14
3027.267	-28.14
3030.53	-28.68
3033.789	-30.05
3037.046	-30.41
3040.301	-30.41
3043.552	-30.32
3046.801	-30.86
3050.048	-29.77
3053.291	-30.86
3056.532	-30.68
3059.771	-30.32
3063.006	-29.77
3066.239	-29.68
3069.469	-29.05
3072.697	-29.95
3075.922	-30.23
3079.144	-30.32
3082.364	-30.77
3085.581	-30.95
3088.795	-30.23
3092.007	-30.86
3095.216	-31.95
3098.423	-32.77
3101.627	-33.41
3104.828	-34.05
3108.026	-33.68
3111.222	-34.59
3114.416	-34.77
3117.607	-34.95
3120.795	-36.14
3123.98	-37.68
3127.163	-37.41
3130.344	-37.86
3133.521	-37.59
3136.696	-37.59
3139.869	-38.32
3143.039	-39.05
3146.206	-39.05
3149.371	-39.77
3152.533	-39.41
3155.693	-39.86
3158.85	-38.77
3162.005	-39.95
3165.157	-40.32
3168.306	-41.05
3171.453	-41.86
3174.597	-41.95
3177.739	-41.77
3180.878	-42.5
3184.014	-42.5
3187.149	-42.86
3190.28	-42.59
3193.409	-43.5
3196.536	-42.41
3199.659	-42.5
3202.781	-42.95
3205.9	-42.86
3209.016	-42.77
3212.13	-42.95
3215.241	-42.59
3218.35	-43.05
3221.456	-43.32
3224.56	-43.5
3227.661	-44.23
3230.76	-45.14
3233.856	-45.77
3236.95	-46.05
3240.041	-47.23
3243.13	-47.5
3246.216	-48.86
3249.3	-49.05
3252.382	-49.32
3255.46	-49.95
3258.537	-50.68
3261.611	-50.86
3264.682	-51.59
3267.751	-50.95
3270.818	-51.86
3273.882	-51.95
3276.943	-52.86
3280.002	-52.05
3283.059	-52.68
3286.113	-52.95
3289.165	-52.68
3292.214	-52.77
3295.261	-52.32
3298.306	-52.5
3301.348	-53.23
3304.387	-52.23
3307.425	-51.41
3310.459	-50.95
3313.492	-50.77
3316.521	-50.77
3319.549	-50.23
3322.574	-50.32
3325.597	-50.5
3328.617	-51.14
3331.635	-50.77
3334.65	-50.41
3337.663	-50.5
3340.674	-51.14
3343.682	-51.59
3346.688	-52.5
3349.691	-52.59
3352.692	-53.14
3355.691	-53.32
3358.687	-53.41
3361.681	-54.5
3364.673	-54.95
3367.662	-55.5
3370.649	-56.86
3373.633	-56.77
3376.615	-56.86
3379.595	-56.95
3382.572	-57.23
3385.547	-57.5
3388.52	-58.32
3391.49	-58.5
3394.458	-57.41
3397.424	-58.05
3400.387	-58.41
3403.348	-58.14
3406.307	-58.5
3409.263	-58.77
3412.217	-58.41
3415.168	-58.5
3418.118	-58.59
3421.065	-58.59
3424.009	-58.5
3426.951	-57.95
3429.891	-57.32
3432.829	-56.68
3435.764	-56.23
3438.697	-56.32
3441.628	-55.5
3444.557	-55.32
3447.483	-54.86
3450.407	-54.23
3453.328	-53.95
3456.247	-53.59
3459.164	-53.86
3462.079	-53.77
3464.991	-54.14
3467.902	-54.32
3470.809	-54.05
3473.715	-54.77
3476.618	-55.68
3479.519	-56.05
3482.418	-56.05
3485.315	-55.86
3488.209	-56.86
3491.101	-57.77
3493.99	-58.05
3496.878	-58.05
3499.763	-58.41
3502.646	-58.95
3505.527	-59.23
3508.405	-59.23
3511.281	-59.86
3514.155	-61.14
3517.027	-61.77
3519.897	-61.59
3522.764	-61.23
3525.629	-61.59
3528.492	-62.14
3531.352	-61.5
3534.211	-61.05
3537.067	-61.05
3539.921	-61.23
3542.773	-60.77
3545.622	-60.14
3548.469	-59.5
3551.315	-59.32
3554.157	-59.23
3556.998	-58.86
3559.837	-58.05
3562.673	-58.41
3565.507	-58.5
3568.339	-58.23
3571.169	-58.14
3573.996	-58.5
3576.822	-59.05
3579.645	-59.5
3582.466	-59.32
3585.285	-59.77
3588.101	-60.32
3590.916	-61.23
3593.728	-60.68
3596.538	-61.05
3599.346	-61.5
3602.152	-61.86
3604.956	-62.5
3607.757	-62.5
3610.556	-63.05
3613.354	-63.32
3616.149	-63.41
3618.942	-63.68
3621.732	-62.77
3624.521	-64.14
3627.307	-64.68
3630.092	-64.77
3632.874	-64.77
3635.654	-64.05
3638.432	-63.41
3641.208	-63.41
3643.982	-63.5
3646.753	-62.77
3649.523	-62.5
3652.29	-63.59
3655.055	-63.23
3657.818	-62.32
3660.579	-62.05
3663.338	-62.14
3666.095	-62.14
3668.849	-62.59
3671.602	-61.77
3674.352	-61.95
3677.101	-62.5
3679.847	-62.14
3682.591	-61.95
3685.333	-61.5
3688.073	-61.95
3690.811	-61.95
3693.547	-61.41
3696.281	-61.5
3699.013	-62.05
3701.742	-62.05
3704.47	-62.41
3707.195	-63.05
3709.919	-63.77
3712.64	-63.68
3715.359	-63.95
3718.076	-64.5
3720.792	-65.14
3723.505	-65.77
3726.216	-66.05
3728.925	-65.68
3731.632	-66.41
3734.336	-65.86
3737.039	-65.41
3739.74	-63.68
3742.439	-63.59
3745.136	-63.86
3747.83	-63.41
3750.523	-62.23
3753.213	-61.5
3755.902	-61.5
3758.589	-60.86
3761.273	-60.5
3763.956	-60.95
3766.636	-60.68
3769.315	-61.68
3771.991	-63.05
3774.665	-64.95
3777.338	-64.68
3780.008	-65.59
3782.677	-65.68
3785.343	-65.59
3788.007	-66.05
3790.67	-66.41
3793.33	-65.59
3795.989	-65.59
3798.645	-65.5
3801.299	-64.68
3803.952	-62.5
3806.602	-62.5
3809.251	-62.68
3811.897	-62.86
3814.542	-63.41
3817.184	-63.41
3819.825	-63.95
3822.463	-64.41
3825.1	-65.23
3827.735	-66.05
3830.367	-66.5
3832.998	-66.77
3835.627	-67.05
3838.253	-66.32
3840.878	-66.68
3843.501	-65.86
3846.122	-65.32
3848.741	-64.77
3851.358	-65.32
3853.973	-63.86
3856.586	-62.14
3859.197	-59.86
3861.806	-57.5
3864.414	-53.05
3867.019	-46.32
3869.622	-36.5
3872.224	-26.77
3874.823	-19.77
3877.421	-15.05
3880.016	-11.86
3882.61	-11.86
3885.202	-12.41
3887.792	-13.23
3890.38	-15.32
3892.966	-19.86
3895.55	-26.77
3898.132	-36.41
3900.713	-46.14
3903.291	-53.59
3905.868	-58.59
3908.442	-62.05
3911.015	-62.86
3913.586	-63.32
3916.155	-63.77
3918.722	-63.23
3921.287	-63.05
3923.85	-63.68
3926.411	-63.77
3928.971	-64.05
3931.528	-64.23
3934.084	-63.95
3936.638	-63.23
3939.19	-63.77
3941.74	-64.05
3944.288	-63.95
3946.834	-64.05
3949.378	-63.95
3951.921	-63.68
3954.462	-63.23
3957	-62.86
3959.537	-62.59
3962.072	-62.41
3964.606	-62.32
3967.137	-61.59
3969.667	-61.05
3972.194	-60.95
3974.72	-61.41
3977.244	-61.32
3979.766	-60.95
3982.286	-61.14
3984.805	-61.95
3987.321	-62.59
3989.836	-62.41
3992.349	-62.41
3994.86	-62.5
3997.369	-62.95
3999.877	-62.95
4002.382	-63.5
4004.886	-63.59
4007.388	-63.86
4009.888	-64.05
4012.386	-63.59
4014.883	-63.77
4017.377	-64.23
4019.87	-64.77
4022.361	-64.95
4024.85	-64.95
4027.338	-64.59
4029.823	-63.95
4032.307	-64.14
4034.789	-63.77
4037.269	-63.05
4039.747	-62.5
4042.224	-61.41
4044.699	-60.86
4047.172	-59.5
4049.643	-58.86
4052.112	-57.95
4054.58	-58.5
4057.046	-58.14
4059.51	-57.86
4061.972	-58.14
4064.432	-59.05
4066.891	-59.5
4069.348	-60.23
4071.803	-60.59
4074.256	-61.14
4076.708	-61.95
4079.158	-62.86
4081.606	-63.86
4084.052	-64.77
4086.497	-64.95
4088.939	-64.77
4091.38	-64.77
4093.819	-55.86
4096.257	-47.95
4098.693	-39.77
4101.127	-31.86
4103.559	-23.77
4105.989	-16.59
4108.418	-15.86
4110.845	-16.41
4113.27	-16.5
4115.694	-17.14
4118.115	-16.77
4120.535	-25.14
4122.954	-33.23
4125.37	-41.68
4127.785	-50.5
4130.198	-58.41
4132.609	-66
4135.019	-66.17
4137.427	-65.25
4139.833	-65.36
4142.237	-64.83