File: Data/Raman/2017-08-24 - Glass, alluminum 108/Aluminum II [full set]/Alu-EC107 30s,I=1, BC=3, 1sta _RamanShift_2.txt
Data from Alu-EC107 30s,I=1, BC=3, 1sta _RamanShift_2.txt Node

Date: Thu Aug 24 13:35:21 IDT 2017
User: aro
Spectrometer: QEPB0276
Trigger mode: 0
Integration Time (sec): 3.000000E1
Scans to average: 1
Electric dark correction enabled: true
Nonlinearity correction enabled: false
Boxcar width: 5
XAxis mode: Raman Shifts
Number of Pixels in Spectrum: 1044
>>>>>Begin Spectral Data<<<<<
160.701	185.88
166.742	286.59
172.777	392.25
178.805	485.32
184.826	561.77
190.841	626.69
196.849	739.24
202.85	854.88
208.845	973.6
214.833	1088.51
220.815	1189.78
226.789	1267.33
232.758	1317.69
238.719	1347.97
244.674	1372.06
250.623	1396.42
256.565	1421.51
262.5	1450.51
268.429	1477.15
274.351	1500.06
280.267	1522.42
286.176	1544.42
292.079	1566.97
297.975	1589.24
303.865	1611.6
309.748	1630.69
315.625	1650.88
321.495	1668.6
327.359	1683.97
333.217	1699.97
339.068	1719.51
344.912	1744.42
350.751	1778.15
356.583	1816.24
362.408	1848.51
368.227	1870.6
374.04	1893.33
379.847	1927.78
385.647	1994.51
391.44	2097.69
397.228	2201.51
403.009	2261.97
408.784	2278.15
414.553	2275.6
420.315	2259.06
426.071	2243.33
431.821	2234.97
437.565	2221.88
443.302	2190.24
449.033	2121.42
454.758	2016.06
460.477	1907.24
466.189	1834.51
471.896	1790.24
477.596	1744.15
483.29	1692.78
488.978	1631.42
494.66	1560.51
500.335	1488.15
506.005	1413.97
511.668	1339.78
517.325	1262.33
522.977	1185.15
528.622	1107.88
534.261	1036.06
539.894	976.06
545.521	928.24
551.141	893.51
556.756	868.97
562.365	851.15
567.968	837.42
573.565	828.24
579.155	821.15
584.74	813.88
590.319	807.6
595.892	801.78
601.459	796.69
607.02	794.06
612.575	798.33
618.124	815.6
623.667	838.6
629.204	851.97
634.735	851.6
640.261	843.6
645.781	833.88
651.294	822.97
656.802	813.78
662.304	803.06
667.8	790.69
673.29	768.78
678.775	734.69
684.254	694.06
689.726	664.51
695.193	647.51
700.655	639.88
706.11	634.51
711.56	632.24
717.004	633.42
722.442	638.15
727.874	644.51
733.301	652.69
738.722	657.88
744.137	661.33
749.547	666.15
754.951	673.88
760.349	682.06
765.741	692.51
771.128	701.33
776.509	707.51
781.885	710.06
787.254	708.33
792.618	708.06
797.977	707.6
803.33	708.06
808.677	706.15
814.019	701.78
819.355	692.15
824.686	680.88
830.011	668.24
835.33	654.69
840.644	639.15
845.952	625.42
851.255	609.97
856.552	596.33
861.844	583.42
867.13	570.88
872.41	557.24
877.686	546.97
882.955	536.88
888.219	527.88
893.478	520.6
898.731	515.15
903.979	510.88
909.221	507.42
914.458	504.42
919.69	501.42
924.916	498.69
930.136	498.15
935.351	496.42
940.561	494.06
945.766	492.78
950.965	488.97
956.158	486.97
961.347	483.78
966.529	481.15
971.707	478.15
976.879	475.24
982.046	472.78
987.208	471.42
992.364	470.97
997.515	471.15
1002.66	472.51
1007.801	476.15
1012.936	478.33
1018.066	481.88
1023.19	485.15
1028.309	489.15
1033.423	493.24
1038.532	496.42
1043.636	497.88
1048.734	499.24
1053.827	500.69
1058.915	500.33
1063.998	499.51
1069.075	499.06
1074.147	496.78
1079.214	494.51
1084.276	490.42
1089.333	485.06
1094.385	480.6
1099.431	475.69
1104.472	469.6
1109.509	464.6
1114.54	459.15
1119.565	454.24
1124.586	448.78
1129.602	444.97
1134.613	441.69
1139.618	440.51
1144.619	440.69
1149.614	441.15
1154.604	440.97
1159.589	441.88
1164.57	441.6
1169.545	441.42
1174.515	440.88
1179.48	442.33
1184.44	441.97
1189.395	441.33
1194.345	440.88
1199.29	439.6
1204.23	439.42
1209.165	439.33
1214.095	439.15
1219.021	440.69
1223.941	440.42
1228.856	440.33
1233.766	437.24
1238.672	434.69
1243.572	430.15
1248.467	424.33
1253.358	419.69
1258.244	414.15
1263.124	409.42
1268	405.42
1272.871	399.24
1277.737	397.15
1282.599	393.51
1287.455	392.51
1292.306	392.15
1297.153	392.6
1301.995	393.78
1306.832	395.15
1311.664	394.51
1316.491	394.42
1321.314	393.33
1326.132	392.24
1330.945	389.24
1335.753	387.6
1340.556	383.97
1345.354	380.78
1350.148	377.69
1354.937	374.42
1359.722	370.78
1364.501	368.06
1369.276	365.24
1374.046	361.33
1378.811	357.33
1383.572	353.24
1388.327	350.06
1393.079	346.78
1397.825	341.97
1402.567	339.51
1407.304	337.15
1412.036	335.42
1416.764	335.06
1421.487	333.6
1426.205	334.69
1430.919	336.33
1435.628	337.97
1440.333	340.06
1445.032	340.6
1449.727	342.6
1454.418	343.33
1459.104	344.6
1463.785	343.88
1468.462	342.78
1473.134	343.97
1477.802	343.33
1482.465	342.6
1487.123	342.97
1491.777	342.06
1496.426	343.69
1501.071	344.6
1505.711	344.42
1510.347	342.97
1514.978	342.78
1519.604	341.15
1524.226	338.42
1528.844	337.24
1533.457	340.6
1538.065	344.06
1542.669	345.15
1547.269	341.51
1551.864	336.88
1556.454	333.6
1561.041	332.51
1565.622	330.51
1570.199	328.88
1574.772	327.15
1579.34	323.88
1583.904	316.42
1588.464	308.6
1593.019	300.88
1597.569	298.06
1602.115	297.33
1606.657	295.97
1611.195	292.33
1615.728	290.06
1620.256	289.06
1624.78	287.06
1629.3	286.42
1633.816	285.15
1638.327	284.6
1642.834	286.15
1647.336	287.97
1651.834	289.15
1656.328	289.33
1660.817	290.42
1665.302	291.33
1669.783	291.69
1674.259	292.24
1678.732	291.78
1683.199	291.69
1687.663	290.33
1692.122	288.15
1696.577	284.33
1701.028	281.78
1705.474	279.33
1709.917	276.69
1714.355	273.78
1718.788	268.97
1723.218	265.06
1727.643	260.88
1732.064	255.51
1736.481	250.33
1740.893	246.6
1745.301	242.97
1749.705	238.6
1754.105	234.97
1758.501	232.06
1762.893	229.51
1767.28	228.33
1771.663	226.42
1776.042	224.97
1780.417	224.06
1784.787	223.69
1789.154	222.42
1793.516	221.78
1797.874	220.06
1802.228	217.42
1806.578	214.42
1810.924	210.06
1815.266	206.15
1819.603	202.78
1823.937	199.51
1828.266	197.06
1832.591	193.51
1836.913	190.78
1841.23	188.06
1845.543	186.78
1849.852	186.51
1854.156	186.15
1858.457	186.33
1862.754	186.33
1867.047	187.06
1871.335	186.51
1875.62	186.33
1879.9	187.69
1884.177	188.42
1888.449	189.6
1892.718	189.69
1896.982	189.78
1901.243	189.69
1905.499	189.88
1909.752	190.97
1914	190.78
1918.245	192.24
1922.485	192.69
1926.722	191.6
1930.954	191.42
1935.183	190.15
1939.408	188.42
1943.628	186.78
1947.845	184.24
1952.058	181.42
1956.267	177.15
1960.472	172.88
1964.673	169.6
1968.87	165.6
1973.063	162.6
1977.252	157.78
1981.438	154.78
1985.619	152.6
1989.797	149.69
1993.971	147.78
1998.14	145.6
2002.306	145.33
2006.469	144.6
2010.627	141.97
2014.781	140.24
2018.932	138.33
2023.078	137.97
2027.221	136.42
2031.36	134.78
2035.495	133.97
2039.627	133.51
2043.754	133.42
2047.878	133.24
2051.998	134.15
2056.114	135.51
2060.226	136.42
2064.334	137.42
2068.439	138.6
2072.54	139.6
2076.637	140.42
2080.73	140.33
2084.82	140.15
2088.906	139.33
2092.988	137.24
2097.066	134.69
2101.14	132.33
2105.211	130.78
2109.278	128.69
2113.342	126.24
2117.401	124.15
2121.457	121.69
2125.509	119.33
2129.558	116.6
2133.602	115.06
2137.643	114.24
2141.681	113.06
2145.714	111.42
2149.744	109.6
2153.77	107.97
2157.793	106.15
2161.812	103.88
2165.827	101.6
2169.838	100.42
2173.846	99.42
2177.851	97.78
2181.851	95.24
2185.848	93.42
2189.841	92.42
2193.831	91.42
2197.817	90.78
2201.799	89.88
2205.778	89.42
2209.753	89.06
2213.725	88.42
2217.693	88.42
2221.657	88.97
2225.618	88.78
2229.575	87.97
2233.529	87.78
2237.479	86.97
2241.425	86.15
2245.368	85.24
2249.307	84.6
2253.243	83.97
2257.175	83.51
2261.104	81.97
2265.029	80.69
2268.95	80.69
2272.868	80.24
2276.783	78.97
2280.694	77.69
2284.601	76.51
2288.505	75.15
2292.405	73.88
2296.302	73.33
2300.195	72.69
2304.085	73.42
2307.971	76.06
2311.854	84.06
2315.734	95.24
2319.609	100.78
2323.482	101.33
2327.351	101.15
2331.216	100.78
2335.078	100.33
2338.937	99.15
2342.792	97.15
2346.643	94.51
2350.492	89.78
2354.336	79.42
2358.178	66.6
2362.015	59.51
2365.85	58.15
2369.681	56.88
2373.508	56.06
2377.333	55.33
2381.153	53.42
2384.971	53.69
2388.785	53.24
2392.595	51.87
2396.402	50.42
2400.206	49.69
2404.007	49.06
2407.804	46.88
2411.597	46.06
2415.388	45.24
2419.174	44.6
2422.958	44.78
2426.738	43.69
2430.515	42.51
2434.289	42.42
2438.059	42.24
2441.825	41.51
2445.589	40.15
2449.349	40.97
2453.106	40.24
2456.859	39.42
2460.61	39.06
2464.356	38.69
2468.1	37.97
2471.84	36.88
2475.577	36.88
2479.311	36.42
2483.041	36.51
2486.768	35.88
2490.492	35.15
2494.213	35.33
2497.93	35.97
2501.644	35.24
2505.355	34.24
2509.062	33.78
2512.766	33.97
2516.467	32.78
2520.165	31.78
2523.859	31.15
2527.551	31.24
2531.239	31.15
2534.923	29.69
2538.605	28.33
2542.283	27.33
2545.958	27.33
2549.63	27.42
2553.299	27.42
2556.964	27.6
2560.626	28.15
2564.285	26.87
2567.941	25.78
2571.594	24.97
2575.243	24.78
2578.89	24.15
2582.533	23.78
2586.173	23.88
2589.809	22.97
2593.443	22.69
2597.073	21.88
2600.701	21.06
2604.325	21.06
2607.946	21.24
2611.564	20.6
2615.178	20.15
2618.79	19.6
2622.398	19.15
2626.004	17.97
2629.606	17.15
2633.205	15.97
2636.801	14.69
2640.394	13.88
2643.983	12.51
2647.57	11.06
2651.153	9.87
2654.734	9.06
2658.311	8.15
2661.885	6.78
2665.456	5.69
2669.025	5.42
2672.589	4.51
2676.151	3.88
2679.71	3.06
2683.266	2.78
2686.819	2.33
2690.368	1.78
2693.915	1.15
2697.458	0.6
2700.999	1.06
2704.536	1.06
2708.071	0.06
2711.602	0.42
2715.13	1.06
2718.656	0.97
2722.178	1.51
2725.697	2.24
2729.214	2.6
2732.727	1.97
2736.237	2.69
2739.744	2.97
2743.249	3.42
2746.75	3.51
2750.248	2.78
2753.743	1.6
2757.236	0.42
2760.725	-1.22
2764.211	-2.31
2767.695	-2.94
2771.175	-2.67
2774.652	-3.76
2778.127	-5.22
2781.598	-6.03
2785.067	-7.31
2788.532	-8.22
2791.995	-8.12
2795.455	-8.67
2798.911	-8.22
2802.365	-8.31
2805.816	-8.76
2809.264	-9.58
2812.709	-9.76
2816.151	-10.13
2819.59	-10.76
2823.026	-9.76
2826.46	-9.76
2829.89	-10.12
2833.318	-10.03
2836.742	-10.58
2840.164	-11.12
2843.583	-11.12
2846.999	-10.49
2850.412	-10.4
2853.822	-10.03
2857.229	-9.94
2860.634	-10.22
2864.035	-10.03
2867.434	-10.49
2870.83	-10.03
2874.223	-10.67
2877.613	-11.4
2881	-12.03
2884.385	-13.4
2887.766	-14.67
2891.145	-16.03
2894.521	-17.4
2897.894	-19.13
2901.264	-20.22
2904.631	-21.12
2907.996	-21.85
2911.358	-22.58
2914.717	-23.31
2918.073	-24.4
2921.426	-25.58
2924.777	-25.67
2928.124	-25.67
2931.469	-25.58
2934.811	-25.67
2938.15	-25.85
2941.487	-26.4
2944.821	-26.94
2948.152	-27.22
2951.48	-27.22
2954.805	-27.12
2958.128	-26.49
2961.447	-26.4
2964.765	-26.67
2968.079	-27.22
2971.39	-26.67
2974.699	-26.31
2978.005	-25.76
2981.308	-25.76
2984.609	-25.85
2987.907	-26.31
2991.202	-26.22
2994.494	-26.85
2997.784	-27.58
3001.07	-27.49
3004.355	-27.12
3007.636	-28.76
3010.915	-29.76
3014.191	-31.49
3017.464	-32.03
3020.734	-32.85
3024.002	-33.03
3027.267	-34.22
3030.53	-34.22
3033.789	-35.22
3037.046	-35.85
3040.301	-36.22
3043.552	-35.85
3046.801	-36.4
3050.048	-35.58
3053.291	-36.31
3056.532	-35.94
3059.771	-35.76
3063.006	-35.49
3066.239	-35.58
3069.469	-35.58
3072.697	-35.85
3075.922	-36.22
3079.144	-36.76
3082.364	-37.4
3085.581	-38.03
3088.795	-38.12
3092.007	-38.76
3095.216	-39.58
3098.423	-39.76
3101.627	-40.22
3104.828	-39.76
3108.026	-39.58
3111.222	-40.67
3114.416	-40.76
3117.607	-40.22
3120.795	-40.76
3123.98	-41.49
3127.163	-41.49
3130.344	-41.58
3133.521	-41.03
3136.696	-40.85
3139.869	-41.67
3143.039	-42.85
3146.206	-42.4
3149.371	-42.76
3152.533	-42.94
3155.693	-42.67
3158.85	-41.76
3162.005	-42.67
3165.157	-42.76
3168.306	-44.03
3171.453	-44.22
3174.597	-44.22
3177.739	-44.22
3180.878	-45.03
3184.014	-45.22
3187.149	-44.94
3190.28	-45.03
3193.409	-46.12
3196.536	-45.49
3199.659	-45.49
3202.781	-45.85
3205.9	-46.58
3209.016	-46.85
3212.13	-46.85
3215.241	-46.4
3218.35	-46.49
3221.456	-47.31
3224.56	-47.94
3227.661	-48.4
3230.76	-48.4
3233.856	-48.94
3236.95	-48.58
3240.041	-49.22
3243.13	-49.22
3246.216	-49.4
3249.3	-50.03
3252.382	-49.76
3255.46	-50.03
3258.537	-49.67
3261.611	-49.49
3264.682	-49.76
3267.751	-48.94
3270.818	-49.49
3273.882	-49.58
3276.943	-49.22
3280.002	-49.4
3283.059	-48.67
3286.113	-48.85
3289.165	-48.94
3292.214	-48.85
3295.261	-48.31
3298.306	-48.76
3301.348	-49.58
3304.387	-49.49
3307.425	-49.03
3310.459	-50.12
3313.492	-50.31
3316.521	-51.12
3319.549	-50.85
3322.574	-51.31
3325.597	-51.94
3328.617	-52.85
3331.635	-52.94
3334.65	-53.4
3337.663	-53.31
3340.674	-53.4
3343.682	-53.67
3346.688	-53.49
3349.691	-53.67
3352.692	-54.49
3355.691	-54.03
3358.687	-54.31
3361.681	-54.85
3364.673	-54.85
3367.662	-54.4
3370.649	-55.22
3373.633	-55.49
3376.615	-55.03
3379.595	-54.58
3382.572	-54.49
3385.547	-54.49
3388.52	-55.03
3391.49	-54.94
3394.458	-54.03
3397.424	-54.22
3400.387	-54.49
3403.348	-54.31
3406.307	-54.49
3409.263	-54.67
3412.217	-55.31
3415.168	-55.31
3418.118	-54.94
3421.065	-54.85
3424.009	-54.31
3426.951	-54.22
3429.891	-54.03
3432.829	-53.85
3435.764	-53.94
3438.697	-53.58
3441.628	-53.67
3444.557	-53.49
3447.483	-53.31
3450.407	-53.49
3453.328	-53.76
3456.247	-54.03
3459.164	-54.4
3462.079	-54.49
3464.991	-55.12
3467.902	-54.76
3470.809	-55.22
3473.715	-55.31
3476.618	-55.94
3479.519	-56.58
3482.418	-56.76
3485.315	-56.76
3488.209	-57.67
3491.101	-58.03
3493.99	-58.12
3496.878	-57.76
3499.763	-57.76
3502.646	-57.94
3505.527	-57.58
3508.405	-57.76
3511.281	-57.4
3514.155	-57.58
3517.027	-57.31
3519.897	-56.85
3522.764	-56.4
3525.629	-56.76
3528.492	-56.94
3531.352	-56.94
3534.211	-56.58
3537.067	-57.03
3539.921	-57.12
3542.773	-57.85
3545.622	-58.12
3548.469	-58.22
3551.315	-58.58
3554.157	-58.94
3556.998	-59.22
3559.837	-59.31
3562.673	-59.58
3565.507	-59.76
3568.339	-59.85
3571.169	-59.76
3573.996	-59.76
3576.822	-59.94
3579.645	-60.12
3582.466	-59.58
3585.285	-59.94
3588.101	-59.49
3590.916	-60.12
3593.728	-59.67
3596.538	-59.58
3599.346	-59.76
3602.152	-59.76
3604.956	-59.94
3607.757	-59.85
3610.556	-59.76
3613.354	-60.03
3616.149	-59.67
3618.942	-59.85
3621.732	-59.22
3624.521	-60.03
3627.307	-60.67
3630.092	-60.31
3632.874	-60.67
3635.654	-60.49
3638.432	-60.03
3641.208	-60.4
3643.982	-61.03
3646.753	-61.12
3649.523	-61.58
3652.29	-61.94
3655.055	-62.22
3657.818	-61.76
3660.579	-62.03
3663.338	-62.4
3666.095	-62.67
3668.849	-63.49
3671.602	-63.4
3674.352	-62.76
3677.101	-63.12
3679.847	-62.31
3682.591	-62.22
3685.333	-61.58
3688.073	-61.85
3690.811	-61.58
3693.547	-60.31
3696.281	-59.58
3699.013	-59.12
3701.742	-59.22
3704.47	-59.58
3707.195	-59.76
3709.919	-60.76
3712.64	-60.49
3715.359	-60.76
3718.076	-61.31
3720.792	-62.03
3723.505	-62.76
3726.216	-63.03
3728.925	-63.58
3731.632	-63.94
3734.336	-64.03
3737.039	-64.12
3739.74	-62.85
3742.439	-63.4
3745.136	-64.03
3747.83	-64.03
3750.523	-63.67
3753.213	-63.58
3755.902	-64.4
3758.589	-64.03
3761.273	-63.58
3763.956	-64.03
3766.636	-64.12
3769.315	-64.49
3771.991	-65.85
3774.665	-67.31
3777.338	-66.67
3780.008	-67.12
3782.677	-67.12
3785.343	-66.4
3788.007	-66.12
3790.67	-66.58
3793.33	-65.67
3795.989	-65.12
3798.645	-64.94
3801.299	-62.67
3803.952	-60.76
3806.602	-61.03
3809.251	-60.4
3811.897	-60.49
3814.542	-60.31
3817.184	-60.58
3819.825	-60.94
3822.463	-61.03
3825.1	-61.85
3827.735	-62.67
3830.367	-63.67
3832.998	-63.85
3835.627	-63.94
3838.253	-64.03
3840.878	-64.58
3843.501	-64.76
3846.122	-65.4
3848.741	-64.58
3851.358	-65.4
3853.973	-63.85
3856.586	-62.58
3859.197	-60.76
3861.806	-58.22
3864.414	-53.31
3867.019	-45.31
3869.622	-34.03
3872.224	-21.76
3874.823	-11.31
3877.421	-5.03
3880.016	-1.12
3882.61	-0.22
3885.202	-0.31
3887.792	-1.03
3890.38	-2.76
3892.966	-7.12
3895.55	-14.85
3898.132	-25.12
3900.713	-37.58
3903.291	-47.49
3905.868	-54.22
3908.442	-57.4
3911.015	-59.03
3913.586	-60.31
3916.155	-61.49
3918.722	-61.85
3921.287	-62.85
3923.85	-63.76
3926.411	-64.22
3928.971	-64.58
3931.528	-64.31
3934.084	-64.58
3936.638	-65.22
3939.19	-65.49
3941.74	-65.12
3944.288	-64.76
3946.834	-64.22
3949.378	-63.31
3951.921	-62.58
3954.462	-62.22
3957	-61.58
3959.537	-61.49
3962.072	-60.67
3964.606	-60.58
3967.137	-60.22
3969.667	-60.12
3972.194	-60.03
3974.72	-60.49
3977.244	-60.49
3979.766	-60.03
3982.286	-59.85
3984.805	-60.03
3987.321	-60.31
3989.836	-60.22
3992.349	-59.58
3994.86	-59.49
3997.369	-59.49
3999.877	-59.76
4002.382	-60.31
4004.886	-60.22
4007.388	-60.58
4009.888	-61.22
4012.386	-61.31
4014.883	-61.85
4017.377	-62.67
4019.87	-63.31
4022.361	-63.67
4024.85	-63.94
4027.338	-63.49
4029.823	-63.58
4032.307	-64.12
4034.789	-64.22
4037.269	-63.85
4039.747	-63.76
4042.224	-62.94
4044.699	-62.76
4047.172	-62.58
4049.643	-61.94
4052.112	-61.22
4054.58	-61.76
4057.046	-61.03
4059.51	-60.12
4061.972	-60.4
4064.432	-60.58
4066.891	-60.12
4069.348	-60.76
4071.803	-60.03
4074.256	-59.76
4076.708	-60.85
4079.158	-61.4
4081.606	-61.12
4084.052	-62.03
4086.497	-62.4
4088.939	-62.58
4091.38	-62.76
4093.819	-52.31
4096.257	-42.22
4098.693	-32.58
4101.127	-23.31
4103.559	-13.76
4105.989	-5.03
4108.418	-5.03
4110.845	-5.31
4113.27	-5.4
4115.694	-5.49
4118.115	-5.4
4120.535	-16.12
4122.954	-26.22
4125.37	-36.49
4127.785	-46.4
4130.198	-55.49
4132.609	-64.53
4135.019	-64.79
4137.427	-64
4139.833	-64.55
4142.237	-64.29