File: Data/Raman/2017-08-24 - Glass, alluminum 108/Aluminum II [full set]/Alu-BS-107 30s,I=1, BC=3, 1sta _RamanShift_2.txt
Data from Alu-BS-107 30s,I=1, BC=3, 1sta _RamanShift_2.txt Node

Date: Thu Aug 24 13:48:51 IDT 2017
User: aro
Spectrometer: QEPB0276
Trigger mode: 0
Integration Time (sec): 3.000000E1
Scans to average: 1
Electric dark correction enabled: true
Nonlinearity correction enabled: false
Boxcar width: 5
XAxis mode: Raman Shifts
Number of Pixels in Spectrum: 1044
>>>>>Begin Spectral Data<<<<<
160.701	200.75
166.742	305.54
172.777	416
178.805	513.69
184.826	593.05
190.841	659.7
196.849	778.25
202.85	898.8
208.845	1022.61
214.833	1142.61
220.815	1249.43
226.789	1331.8
232.758	1385.89
238.719	1418.52
244.674	1444.43
250.623	1472.61
256.565	1498.98
262.5	1524.7
268.429	1552.25
274.351	1574.61
280.267	1597.61
286.176	1621.98
292.079	1644.61
297.975	1666.8
303.865	1687.61
309.748	1706.98
315.625	1725.25
321.495	1744.34
327.359	1763.16
333.217	1778.61
339.068	1801.16
344.912	1826.34
350.751	1858.25
356.583	1897.52
362.408	1926.7
368.227	1949.34
374.04	1972.52
379.847	2006.98
385.647	2071.16
391.44	2170.52
397.228	2273.34
403.009	2329.98
408.784	2347.16
414.553	2344.89
420.315	2329.07
426.071	2315.8
431.821	2306.61
437.565	2292.07
443.302	2260.43
449.033	2195.25
454.758	2090.98
460.477	1982.89
466.189	1913.98
471.896	1868.8
477.596	1821.7
483.29	1767.16
488.978	1705.16
494.66	1636.16
500.335	1562.52
506.005	1486.43
511.668	1411.16
517.325	1335.07
522.977	1256.98
528.622	1176.7
534.261	1105.89
539.894	1045.34
545.521	998.8
551.141	965.61
556.756	939.89
562.365	921.8
567.968	908.89
573.565	898.25
579.155	889.34
584.74	882.25
590.319	876.43
595.892	868.8
601.459	862.52
607.02	859.89
612.575	861.89
618.124	877.8
623.667	897.89
629.204	910.98
634.735	909.52
640.261	901.89
645.781	890.52
651.294	879.8
656.802	870.61
662.304	859.8
667.8	844.52
673.29	822.61
678.775	788.34
684.254	749.61
689.726	718.34
695.193	701.98
700.655	693.98
706.11	689.34
711.56	686.8
717.004	687.34
722.442	692.07
727.874	699.52
733.301	706.7
738.722	711.25
744.137	716.52
749.547	722.07
754.951	729.25
760.349	737.25
765.741	747.61
771.128	756.8
776.509	761.8
781.885	763.7
787.254	762.8
792.618	761.98
797.977	762.61
803.33	763.34
808.677	763.07
814.019	758.16
819.355	750.43
824.686	739.34
830.011	725.98
835.33	712.07
840.644	697.7
845.952	682.61
851.255	668.34
856.552	655.7
861.844	641.52
867.13	626.98
872.41	613.89
877.686	600.8
882.955	589.61
888.219	580.07
893.478	572.89
898.731	566.43
903.979	561.7
909.221	557.16
914.458	551.98
919.69	548.89
924.916	548.16
930.136	546.34
935.351	545.98
940.561	544.07
945.766	543.07
950.965	541.16
956.158	538.25
961.347	534.89
966.529	532.34
971.707	529.8
976.879	526.98
982.046	522.98
987.208	522.43
992.364	521.34
997.515	522.07
1002.66	523.07
1007.801	524.25
1012.936	527.61
1018.066	531.7
1023.19	534.07
1028.309	538.07
1033.423	540.25
1038.532	542.52
1043.636	543.98
1048.734	545.7
1053.827	546.43
1058.915	545.8
1063.998	545.16
1069.075	543.43
1074.147	539.98
1079.214	538.61
1084.276	534.16
1089.333	529.98
1094.385	524.52
1099.431	520.43
1104.472	514.16
1109.509	507.89
1114.54	500.43
1119.565	495.07
1124.586	489.89
1129.602	486.98
1134.613	482.34
1139.618	480.8
1144.619	479.89
1149.614	480.98
1154.604	480.7
1159.589	481.16
1164.57	482.98
1169.545	484.43
1174.515	484.8
1179.48	484.61
1184.44	483.43
1189.395	484.52
1194.345	482.52
1199.29	481.98
1204.23	481.61
1209.165	480.7
1214.095	481.98
1219.021	481.89
1223.941	481.7
1228.856	481.52
1233.766	479.34
1238.672	476.52
1243.572	472.25
1248.467	467.52
1253.358	462.25
1258.244	456.07
1263.124	449.98
1268	443.43
1272.871	437.16
1277.737	433.43
1282.599	428.34
1287.455	427.16
1292.306	426.34
1297.153	426.25
1301.995	427.16
1306.832	427.8
1311.664	428.52
1316.491	428.43
1321.314	427.43
1326.132	425.8
1330.945	422.7
1335.753	420.7
1340.556	416.89
1345.354	412.25
1350.148	407.07
1354.937	403.7
1359.722	399.07
1364.501	393.98
1369.276	389.98
1374.046	385.34
1378.811	381.8
1383.572	378.43
1388.327	374.07
1393.079	370.7
1397.825	368.07
1402.567	365.89
1407.304	363.07
1412.036	361.25
1416.764	361.43
1421.487	361.43
1426.205	362.34
1430.919	363.7
1435.628	364.8
1440.333	367.25
1445.032	369.89
1449.727	371.52
1454.418	372.07
1459.104	372.16
1463.785	372.34
1468.462	371.8
1473.134	371.52
1477.802	371.43
1482.465	369.7
1487.123	369.61
1491.777	368.8
1496.426	368.07
1501.071	366.89
1505.711	366.34
1510.347	364.61
1514.978	363.25
1519.604	360.25
1524.226	357.89
1528.844	356.16
1533.457	358.98
1538.065	362.52
1542.669	363.43
1547.269	360.16
1551.864	357.43
1556.454	354.07
1561.041	352.25
1565.622	350.7
1570.199	348.89
1574.772	346.98
1579.34	343.07
1583.904	336.34
1588.464	327.25
1593.019	321.43
1597.569	318.61
1602.115	315.8
1606.657	313.43
1611.195	311.07
1615.728	308.7
1620.256	307.16
1624.78	305.52
1629.3	305.25
1633.816	303.61
1638.327	304.07
1642.834	303.34
1647.336	302.34
1651.834	303.16
1656.328	303.61
1660.817	303.98
1665.302	303.89
1669.783	303.52
1674.259	302.25
1678.732	300.43
1683.199	298.7
1687.663	296.07
1692.122	292.8
1696.577	290.25
1701.028	285.7
1705.474	281.89
1709.917	278.34
1714.355	273.8
1718.788	269.07
1723.218	264.52
1727.643	260.34
1732.064	256.34
1736.481	250.98
1740.893	247.25
1745.301	242.8
1749.705	240.16
1754.105	236.98
1758.501	234.16
1762.893	231.89
1767.28	230.43
1771.663	228.43
1776.042	226.52
1780.417	224.34
1784.787	223.7
1789.154	221.7
1793.516	220.25
1797.874	217.7
1802.228	214.61
1806.578	210.61
1810.924	206.98
1815.266	203.16
1819.603	200.07
1823.937	197.25
1828.266	194.43
1832.591	190.43
1836.913	188.34
1841.23	186.16
1845.543	185.25
1849.852	185.16
1854.156	185.98
1858.457	187.07
1862.754	187.8
1867.047	187.98
1871.335	188.61
1875.62	188.98
1879.9	190.8
1884.177	191.16
1888.449	191.89
1892.718	191.52
1896.982	191.25
1901.243	191.43
1905.499	190.34
1909.752	189.89
1914	190.61
1918.245	189.7
1922.485	189.07
1926.722	187.16
1930.954	186.07
1935.183	185.07
1939.408	182.89
1943.628	179.98
1947.845	175.34
1952.058	172.89
1956.267	169.52
1960.472	164.7
1964.673	160.43
1968.87	156.61
1973.063	153.43
1977.252	150.61
1981.438	146.89
1985.619	144.52
1989.797	142.34
1993.971	141.7
1998.14	139.25
2002.306	137.61
2006.469	137.07
2010.627	136.16
2014.781	134.98
2018.932	134.07
2023.078	132.43
2027.221	130.7
2031.36	129.43
2035.495	128.52
2039.627	127.61
2043.754	127.34
2047.878	127.07
2051.998	127.43
2056.114	128.16
2060.226	128.98
2064.334	129.07
2068.439	129.7
2072.54	130.89
2076.637	132.34
2080.73	132.8
2084.82	132.34
2088.906	131.16
2092.988	129.98
2097.066	127.43
2101.14	124.61
2105.211	122.43
2109.278	120.61
2113.342	118.61
2117.401	116.61
2121.457	113.8
2125.509	111.61
2129.558	109.34
2133.602	107.8
2137.643	106.34
2141.681	105.07
2145.714	103.89
2149.744	102.89
2153.77	101.07
2157.793	99.43
2161.812	97.34
2165.827	94.89
2169.838	93.25
2173.846	91.61
2177.851	89.8
2181.851	87.98
2185.848	86.8
2189.841	85.8
2193.831	83.8
2197.817	82.98
2201.799	82.16
2205.778	82.43
2209.753	82.61
2213.725	81.8
2217.693	81.61
2221.657	82.52
2225.618	82.98
2229.575	81.07
2233.529	81.16
2237.479	81.43
2241.425	80.52
2245.368	78.89
2249.307	77.8
2253.243	76.43
2257.175	75.98
2261.104	74.61
2265.029	72.25
2268.95	70.89
2272.868	71.25
2276.783	69.8
2280.694	67.98
2284.601	66.43
2288.505	65.16
2292.405	63.98
2296.302	63.34
2300.195	62.8
2304.085	63.52
2307.971	66.7
2311.854	75.16
2315.734	85.25
2319.609	90.8
2323.482	91.52
2327.351	92.07
2331.216	92.07
2335.078	90.89
2338.937	89.25
2342.792	87.7
2346.643	85.43
2350.492	81.25
2354.336	70.07
2358.178	58.07
2362.015	50.98
2365.85	49.16
2369.681	47.98
2373.508	47.89
2377.333	47.52
2381.153	47.34
2384.971	47.7
2388.785	47.25
2392.595	45.98
2396.402	45.89
2400.206	44.8
2404.007	44.16
2407.804	42.61
2411.597	42.34
2415.388	41.34
2419.174	40.61
2422.958	40.16
2426.738	38.52
2430.515	37.52
2434.289	37.61
2438.059	36.61
2441.825	36.34
2445.589	35.07
2449.349	35.43
2453.106	34.16
2456.859	33.52
2460.61	32.89
2464.356	31.98
2468.1	31.52
2471.84	31.25
2475.577	30.43
2479.311	30.34
2483.041	29.61
2486.768	30.34
2490.492	29.7
2494.213	29.52
2497.93	30.34
2501.644	30.25
2505.355	30.61
2509.062	29.89
2512.766	29.25
2516.467	28.8
2520.165	27.89
2523.859	28.07
2527.551	26.43
2531.239	25.98
2534.923	24.7
2538.605	22.8
2542.283	22.07
2545.958	21.25
2549.63	20.7
2553.299	20.7
2556.964	19.7
2560.626	20.25
2564.285	19.7
2567.941	19.16
2571.594	18.16
2575.243	17.89
2578.89	17.8
2582.533	16.98
2586.173	16.43
2589.809	16.61
2593.443	15.8
2597.073	14.98
2600.701	14.25
2604.325	13.07
2607.946	13.07
2611.564	12.43
2615.178	12.43
2618.79	10.8
2622.398	10.07
2626.004	9.34
2629.606	7.89
2633.205	7.07
2636.801	6.16
2640.394	4.98
2643.983	3.89
2647.57	2.34
2651.153	1.43
2654.734	0.52
2658.311	-0.11
2661.885	-0.93
2665.456	-2.2
2669.025	-2.3
2672.589	-2.75
2676.151	-3.39
2679.71	-4.3
2683.266	-5.2
2686.819	-5.39
2690.368	-6.02
2693.915	-6.75
2697.458	-6.84
2700.999	-7.66
2704.536	-7.39
2708.071	-8.2
2711.602	-8.39
2715.13	-7.84
2718.656	-8.02
2722.178	-6.93
2725.697	-6.57
2729.214	-5.39
2732.727	-6.02
2736.237	-5.84
2739.744	-4.75
2743.249	-4.75
2746.75	-4.66
2750.248	-5.3
2753.743	-5.84
2757.236	-6.66
2760.725	-8.02
2764.211	-9.02
2767.695	-10.66
2771.175	-10.57
2774.652	-12.02
2778.127	-13.66
2781.598	-14.39
2785.067	-15.75
2788.532	-16.66
2791.995	-17.3
2795.455	-17.66
2798.911	-17.3
2802.365	-17.3
2805.816	-17.48
2809.264	-18.11
2812.709	-18.2
2816.151	-18.39
2819.59	-19.02
2823.026	-18.11
2826.46	-18.3
2829.89	-18.48
2833.318	-18.75
2836.742	-19.39
2840.164	-20.11
2843.583	-20.48
2846.999	-20.3
2850.412	-20.3
2853.822	-20.11
2857.229	-20.2
2860.634	-20.3
2864.035	-20.11
2867.434	-20.75
2870.83	-20.57
2874.223	-21.48
2877.613	-22.11
2881	-21.93
2884.385	-23.02
2887.766	-23.93
2891.145	-25.3
2894.521	-26.48
2897.894	-28.2
2901.264	-29.11
2904.631	-30.2
2907.996	-31.02
2911.358	-31.39
2914.717	-32.48
2918.073	-34.11
2921.426	-34.93
2924.777	-34.75
2928.124	-34.75
2931.469	-34.84
2934.811	-35.11
2938.15	-35.57
2941.487	-35.93
2944.821	-36.39
2948.152	-37.02
2951.48	-36.93
2954.805	-37.11
2958.128	-37.3
2961.447	-37.84
2964.765	-38.11
2968.079	-39.11
2971.39	-38.84
2974.699	-38.48
2978.005	-38.39
2981.308	-38.93
2984.609	-38.93
2987.907	-39.3
2991.202	-39.57
2994.494	-39.84
2997.784	-40.57
3001.07	-40.75
3004.355	-40.66
3007.636	-41.75
3010.915	-42.84
3014.191	-43.3
3017.464	-43.48
3020.734	-43.57
3024.002	-43.57
3027.267	-44.3
3030.53	-44.84
3033.789	-45.66
3037.046	-46.11
3040.301	-45.66
3043.552	-45.84
3046.801	-46.57
3050.048	-46.57
3053.291	-47.02
3056.532	-47.66
3059.771	-47.84
3063.006	-47.2
3066.239	-46.66
3069.469	-45.84
3072.697	-46.57
3075.922	-47.2
3079.144	-47.93
3082.364	-47.66
3085.581	-47.93
3088.795	-48.11
3092.007	-48.66
3095.216	-48.93
3098.423	-49.84
3101.627	-50.48
3104.828	-50.93
3108.026	-50.84
3111.222	-51.48
3114.416	-51.2
3117.607	-51.93
3120.795	-52.57
3123.98	-53.48
3127.163	-53.66
3130.344	-54.3
3133.521	-54.2
3136.696	-54.84
3139.869	-55.39
3143.039	-56.3
3146.206	-56.02
3149.371	-56.57
3152.533	-56.39
3155.693	-56.3
3158.85	-55.3
3162.005	-55.48
3165.157	-55.84
3168.306	-56.66
3171.453	-56.57
3174.597	-56.48
3177.739	-55.75
3180.878	-56.57
3184.014	-56.3
3187.149	-56.3
3190.28	-56.39
3193.409	-57.02
3196.536	-56.66
3199.659	-56.39
3202.781	-56.02
3205.9	-56.57
3209.016	-57.66
3212.13	-57.93
3215.241	-57.75
3218.35	-58.2
3221.456	-58.75
3224.56	-58.93
3227.661	-59.48
3230.76	-59.93
3233.856	-60.75
3236.95	-61.02
3240.041	-61.39
3243.13	-60.66
3246.216	-61.02
3249.3	-61.48
3252.382	-61.66
3255.46	-61.75
3258.537	-61.75
3261.611	-61.84
3264.682	-62.11
3267.751	-61.02
3270.818	-61.57
3273.882	-61.57
3276.943	-62.02
3280.002	-61.84
3283.059	-61.66
3286.113	-61.93
3289.165	-61.39
3292.214	-61.66
3295.261	-61.48
3298.306	-61.84
3301.348	-62.39
3304.387	-62.02
3307.425	-61.66
3310.459	-61.39
3313.492	-62.02
3316.521	-62.39
3319.549	-62.2
3322.574	-63.02
3325.597	-63.66
3328.617	-64.02
3331.635	-64.3
3334.65	-65.11
3337.663	-65.11
3340.674	-65.3
3343.682	-66.2
3346.688	-66.3
3349.691	-66.48
3352.692	-66.57
3355.691	-66.3
3358.687	-66.11
3361.681	-67.2
3364.673	-66.84
3367.662	-65.75
3370.649	-66.84
3373.633	-66.66
3376.615	-66.2
3379.595	-65.93
3382.572	-65.48
3385.547	-65.39
3388.52	-66.11
3391.49	-65.57
3394.458	-64.3
3397.424	-64.75
3400.387	-65.84
3403.348	-65.75
3406.307	-66.2
3409.263	-66.57
3412.217	-66.39
3415.168	-67.2
3418.118	-67.39
3421.065	-67.57
3424.009	-68.2
3426.951	-68.11
3429.891	-67.93
3432.829	-67.57
3435.764	-67.11
3438.697	-66.84
3441.628	-66.93
3444.557	-67.48
3447.483	-67.11
3450.407	-66.93
3453.328	-66.57
3456.247	-66.39
3459.164	-66.57
3462.079	-66.02
3464.991	-65.93
3467.902	-66.02
3470.809	-66.39
3473.715	-66.11
3476.618	-66.2
3479.519	-66.11
3482.418	-66.3
3485.315	-66.3
3488.209	-67.02
3491.101	-67.66
3493.99	-68.2
3496.878	-67.84
3499.763	-67.48
3502.646	-67.75
3505.527	-67.75
3508.405	-67.66
3511.281	-67.93
3514.155	-68.3
3517.027	-67.84
3519.897	-67.11
3522.764	-66.39
3525.629	-66.57
3528.492	-67.02
3531.352	-66.84
3534.211	-66.11
3537.067	-66.39
3539.921	-66.39
3542.773	-67.02
3545.622	-67.2
3548.469	-67.2
3551.315	-67.66
3554.157	-68.57
3556.998	-68.57
3559.837	-67.93
3562.673	-68.75
3565.507	-69.3
3568.339	-69.02
3571.169	-69.66
3573.996	-69.3
3576.822	-69.48
3579.645	-70.39
3582.466	-69.84
3585.285	-69.39
3588.101	-69.2
3590.916	-70.48
3593.728	-69.39
3596.538	-69.57
3599.346	-69.66
3602.152	-69.2
3604.956	-69.39
3607.757	-69.02
3610.556	-68.57
3613.354	-68.11
3616.149	-68.48
3618.942	-68.57
3621.732	-68.02
3624.521	-69.02
3627.307	-69.11
3630.092	-69.57
3632.874	-70.57
3635.654	-70.66
3638.432	-70.75
3641.208	-71.48
3643.982	-73.11
3646.753	-73.39
3649.523	-74.3
3652.29	-74.84
3655.055	-75.39
3657.818	-75.2
3660.579	-75.2
3663.338	-74.93
3666.095	-74.39
3668.849	-74.57
3671.602	-74.02
3674.352	-73.66
3677.101	-73.39
3679.847	-72.39
3682.591	-72.48
3685.333	-71.48
3688.073	-71.3
3690.811	-70.84
3693.547	-70.48
3696.281	-70.48
3699.013	-70.39
3701.742	-70.48
3704.47	-70.84
3707.195	-70.75
3709.919	-71.3
3712.64	-71.2
3715.359	-71.57
3718.076	-72.48
3720.792	-73.2
3723.505	-73.2
3726.216	-73.48
3728.925	-73.93
3731.632	-74.39
3734.336	-74.02
3737.039	-74.2
3739.74	-74.57
3742.439	-75.02
3745.136	-75.39
3747.83	-75.57
3750.523	-75.39
3753.213	-75.3
3755.902	-75.84
3758.589	-75.2
3761.273	-74.93
3763.956	-75.2
3766.636	-75.57
3769.315	-74.93
3771.991	-75.66
3774.665	-77.48
3777.338	-77.02
3780.008	-77.57
3782.677	-77.75
3785.343	-77.02
3788.007	-77.2
3790.67	-77.02
3793.33	-76.2
3795.989	-75.93
3798.645	-75.84
3801.299	-74.57
3803.952	-72.66
3806.602	-72.84
3809.251	-72.57
3811.897	-72.48
3814.542	-73.02
3817.184	-72.84
3819.825	-73.66
3822.463	-73.93
3825.1	-74.48
3827.735	-75.3
3830.367	-75.84
3832.998	-76.02
3835.627	-75.66
3838.253	-75.75
3840.878	-76.2
3843.501	-75.84
3846.122	-75.93
3848.741	-75.3
3851.358	-75.57
3853.973	-73.93
3856.586	-72.11
3859.197	-69.2
3861.806	-64.57
3864.414	-56.75
3867.019	-43.66
3869.622	-25.39
3872.224	-7.57
3874.823	5.34
3877.421	13.16
3880.016	17.25
3882.61	18.25
3885.202	17.89
3887.792	16.16
3890.38	11.98
3892.966	3.98
3895.55	-8.66
3898.132	-26.2
3900.713	-44.02
3903.291	-57.3
3905.868	-65.75
3908.442	-70.2
3911.015	-72.3
3913.586	-73.66
3916.155	-75.2
3918.722	-75.48
3921.287	-75.66
3923.85	-76.48
3926.411	-77.11
3928.971	-78.11
3931.528	-78.3
3934.084	-77.93
3936.638	-77.84
3939.19	-78.11
3941.74	-77.39
3944.288	-76.66
3946.834	-75.66
3949.378	-75.11
3951.921	-74.48
3954.462	-73.93
3957	-72.93
3959.537	-72.3
3962.072	-71.57
3964.606	-70.84
3967.137	-70.3
3969.667	-70.2
3972.194	-69.93
3974.72	-70.48
3977.244	-70.66
3979.766	-69.48
3982.286	-69.39
3984.805	-69.48
3987.321	-70.2
3989.836	-70.66
3992.349	-71.02
3994.86	-71.02
3997.369	-71.3
3999.877	-71.66
4002.382	-72.48
4004.886	-72.84
4007.388	-74.2
4009.888	-74.39
4012.386	-74.93
4014.883	-75.48
4017.377	-75.75
4019.87	-76.3
4022.361	-76.75
4024.85	-77.2
4027.338	-76.66
4029.823	-76.84
4032.307	-77.11
4034.789	-76.93
4037.269	-77.02
4039.747	-76.11
4042.224	-75.02
4044.699	-74.75
4047.172	-74.11
4049.643	-73.66
4052.112	-72.57
4054.58	-73.3
4057.046	-72.48
4059.51	-71.48
4061.972	-71.11
4064.432	-71.2
4066.891	-71.48
4069.348	-71.48
4071.803	-71.48
4074.256	-71.93
4076.708	-71.93
4079.158	-72.93
4081.606	-72.75
4084.052	-73.3
4086.497	-73.48
4088.939	-73.84
4091.38	-74.2
4093.819	-60.3
4096.257	-47.02
4098.693	-34.2
4101.127	-21.11
4103.559	-9.2
4105.989	1.7
4108.418	1.7
4110.845	1.43
4113.27	0.89
4115.694	0.43
4118.115	0.98
4120.535	-13.2
4122.954	-26.84
4125.37	-40.11
4127.785	-53.39
4130.198	-65.84
4132.609	-76.85
4135.019	-77.08
4137.427	-76.75
4139.833	-76.75
4142.237	-76.25