File: Data/Raman/2017-08-24 - Glass, alluminum 108/Aluminum II [full set]/Alu-EC1-2 30s,I=1, BC=3, 1sta _RamanShift_1.txt
Data from Alu-EC1-2 30s,I=1, BC=3, 1sta _RamanShift_1.txt Node

Date: Thu Aug 24 13:32:51 IDT 2017
User: aro
Spectrometer: QEPB0276
Trigger mode: 0
Integration Time (sec): 3.000000E1
Scans to average: 1
Electric dark correction enabled: true
Nonlinearity correction enabled: false
Boxcar width: 5
XAxis mode: Raman Shifts
Number of Pixels in Spectrum: 1044
>>>>>Begin Spectral Data<<<<<
160.701	242.38
166.742	381.66
172.777	527.38
178.805	652.71
184.826	757.77
190.841	845.1
196.849	1000.19
202.85	1159.65
208.845	1320.65
214.833	1475.74
220.815	1615.38
226.789	1722.47
232.758	1790.19
238.719	1827.92
244.674	1860.1
250.623	1890.19
256.565	1920.92
262.5	1953.38
268.429	1982.47
274.351	2010.83
280.267	2037.47
286.176	2061.47
292.079	2087.38
297.975	2109.38
303.865	2133.19
309.748	2154.92
315.625	2175.56
321.495	2195.74
327.359	2213.56
333.217	2230.65
339.068	2249.74
344.912	2274.19
350.751	2309.19
356.583	2344.38
362.408	2377.47
368.227	2400.28
374.04	2421.47
379.847	2457.01
385.647	2523.01
391.44	2628.74
397.228	2737.56
403.009	2799.83
408.784	2818.47
414.553	2813.47
420.315	2797.38
426.071	2782.38
431.821	2769.38
437.565	2751.83
443.302	2714.38
449.033	2644.1
454.758	2531.19
460.477	2414.38
466.189	2335.38
471.896	2285.19
477.596	2233.38
483.29	2175.01
488.978	2103.47
494.66	2028.74
500.335	1949.74
506.005	1867.28
511.668	1781.19
517.325	1694.74
522.977	1604.92
528.622	1515.56
534.261	1434.56
539.894	1366.47
545.521	1312.47
551.141	1273.92
556.756	1243.1
562.365	1220.47
567.968	1205.19
573.565	1194.38
579.155	1184.47
584.74	1177.1
590.319	1170.38
595.892	1160.74
601.459	1152.92
607.02	1147.19
612.575	1149.1
618.124	1165.92
623.667	1187.65
629.204	1200.92
634.735	1198.01
640.261	1186.65
645.781	1173.47
651.294	1160.83
656.802	1150.83
662.304	1139.01
667.8	1125.38
673.29	1100.65
678.775	1063.28
684.254	1021.74
689.726	986.92
695.193	969.65
700.655	959.83
706.11	953.56
711.56	949.19
717.004	946.65
722.442	950.1
727.874	954.74
733.301	961.01
738.722	964.01
744.137	964.56
749.547	969.92
754.951	977.19
760.349	986.65
765.741	996.19
771.128	1005.47
776.509	1012.01
781.885	1013.47
787.254	1011.56
792.618	1010.74
797.977	1012.19
803.33	1014.01
808.677	1010.65
814.019	1003.28
819.355	993.83
824.686	981.1
830.011	967.92
835.33	951.38
840.644	936.1
845.952	920.47
851.255	904.28
856.552	886.74
861.844	869.92
867.13	855.56
872.41	841.38
877.686	827.92
882.955	814.83
888.219	803.47
893.478	796.01
898.731	789.01
903.979	782.1
909.221	777.1
914.458	774.1
919.69	772.47
924.916	769.38
930.136	766.74
935.351	763.83
940.561	762.74
945.766	760.01
950.965	756.01
956.158	751.1
961.347	746.47
966.529	741.28
971.707	737.28
976.879	732.74
982.046	729.56
987.208	728.38
992.364	727.92
997.515	728.65
1002.66	731.38
1007.801	735.28
1012.936	738.65
1018.066	744.38
1023.19	748.1
1028.309	751.83
1033.423	754.38
1038.532	756.01
1043.636	757.1
1048.734	758.01
1053.827	757.65
1058.915	755.01
1063.998	752.74
1069.075	750.83
1074.147	747.28
1079.214	745.1
1084.276	739.65
1089.333	733.83
1094.385	728.92
1099.431	723.1
1104.472	714.65
1109.509	707.38
1114.54	699.56
1119.565	692.19
1124.586	684.83
1129.602	679.01
1134.613	674.28
1139.618	671.83
1144.619	670.83
1149.614	669.38
1154.604	668.01
1159.589	668.28
1164.57	667.74
1169.545	667.83
1174.515	668.19
1179.48	668.47
1184.44	666.56
1189.395	664.74
1194.345	663.38
1199.29	662.65
1204.23	662.28
1209.165	661.56
1214.095	661.83
1219.021	661.65
1223.941	660.01
1228.856	658.19
1233.766	654.38
1238.672	651.65
1243.572	646.83
1248.467	639.38
1253.358	631.1
1258.244	622.83
1263.124	615.01
1268	608.28
1272.871	601.19
1277.737	596.92
1282.599	593.83
1287.455	592.19
1292.306	592.28
1297.153	591.47
1301.995	593.28
1306.832	594.1
1311.664	593.19
1316.491	591.65
1321.314	586.74
1326.132	582.1
1330.945	574.28
1335.753	565.65
1340.556	556.92
1345.354	546.19
1350.148	542.1
1354.937	534.65
1359.722	526.56
1364.501	520.19
1369.276	513.83
1374.046	508.19
1378.811	503.47
1383.572	500.38
1388.327	496.83
1393.079	494.74
1397.825	492.28
1402.567	486.19
1407.304	483.28
1412.036	482.28
1416.764	482.74
1421.487	483.65
1426.205	486.1
1430.919	489.38
1435.628	492.01
1440.333	495.38
1445.032	496.19
1449.727	496.83
1454.418	496.28
1459.104	494.37
1463.785	491.19
1468.462	486.65
1473.134	480.92
1477.802	475.38
1482.465	468.1
1487.123	461.65
1491.777	454.38
1496.426	448.38
1501.071	443.56
1505.711	438.92
1510.347	433.01
1514.978	429.01
1519.604	424.83
1524.226	422.19
1528.844	420.38
1533.457	423.47
1538.065	430.19
1542.669	433.74
1547.269	433.01
1551.864	431.65
1556.454	429.83
1561.041	431.28
1565.622	431.83
1570.199	432.83
1574.772	433.01
1579.34	431.56
1583.904	425.01
1588.464	414.56
1593.019	406.92
1597.569	404.92
1602.115	402.92
1606.657	401.01
1611.195	397.83
1615.728	394.38
1620.256	391.65
1624.78	388.83
1629.3	387.56
1633.816	385.92
1638.327	385.47
1642.834	386.1
1647.336	384.74
1651.834	383.47
1656.328	382.65
1660.817	380.38
1665.302	378.38
1669.783	374.19
1674.259	369.19
1678.732	362.65
1683.199	356.83
1687.663	349.19
1692.122	340.38
1696.577	332.56
1701.028	325.01
1705.474	317.28
1709.917	311.56
1714.355	306.38
1718.788	300.83
1723.218	297.01
1727.643	293.83
1732.064	290.38
1736.481	287.83
1740.893	285.28
1745.301	284.19
1749.705	282.1
1754.105	279.1
1758.501	275.56
1762.893	271.38
1767.28	267.83
1771.663	263.01
1776.042	257.56
1780.417	252.92
1784.787	249.1
1789.154	245.1
1793.516	239.83
1797.874	235.47
1802.228	232.38
1806.578	228.92
1810.924	226.01
1815.266	224.56
1819.603	223.19
1823.937	223.01
1828.266	222.65
1832.591	221.47
1836.913	221.47
1841.23	220.56
1845.543	220.47
1849.852	220.47
1854.156	220.28
1858.457	219.19
1862.754	218.1
1867.047	217.83
1871.335	216.83
1875.62	215.56
1879.9	215.1
1884.177	214.38
1888.449	213.38
1892.718	211.38
1896.982	207.92
1901.243	206.38
1905.499	205.28
1909.752	202.83
1914	199.92
1918.245	196.65
1922.485	193.92
1926.722	190.83
1930.954	187.19
1935.183	183.92
1939.408	180.47
1943.628	178.92
1947.845	174.83
1952.058	171.38
1956.267	169.56
1960.472	166.01
1964.673	164.56
1968.87	162.1
1973.063	160.19
1977.252	158.19
1981.438	156.83
1985.619	156.65
1989.797	155.28
1993.971	155.56
1998.14	155.19
2002.306	154.01
2006.469	155.74
2010.627	154.1
2014.781	152.83
2018.932	151.47
2023.078	149.74
2027.221	148.56
2031.36	146.28
2035.495	145.38
2039.627	142.83
2043.754	141.47
2047.878	140.47
2051.998	139.28
2056.114	139.56
2060.226	139.74
2064.334	139.01
2068.439	139.1
2072.54	138.1
2076.637	138.1
2080.73	136.47
2084.82	136.01
2088.906	134.38
2092.988	132.1
2097.066	128.74
2101.14	126.38
2105.211	123.83
2109.278	122.01
2113.342	120.01
2117.401	118.37
2121.457	116.38
2125.509	115.38
2129.558	114.65
2133.602	113.65
2137.643	112.47
2141.681	111.74
2145.714	110.56
2149.744	109.19
2153.77	107.47
2157.793	106.74
2161.812	104.92
2165.827	103.74
2169.838	102.83
2173.846	101.01
2177.851	99.92
2181.851	98.92
2185.848	98.01
2189.841	97.28
2193.831	97.47
2197.817	97.28
2201.799	96.65
2205.778	97.74
2209.753	97.56
2213.725	96.56
2217.693	96.01
2221.657	96.28
2225.618	95.56
2229.575	94.56
2233.529	94.01
2237.479	92.92
2241.425	91.74
2245.368	90.19
2249.307	88.19
2253.243	86.56
2257.175	85.92
2261.104	85.19
2265.029	83.1
2268.95	82.38
2272.868	82.01
2276.783	80.19
2280.694	78.74
2284.601	77.74
2288.505	77.38
2292.405	76.92
2296.302	76.1
2300.195	75.74
2304.085	75.47
2307.971	78.92
2311.854	87.65
2315.734	98.28
2319.609	105.28
2323.482	105.92
2327.351	106.19
2331.216	104.74
2335.078	103.47
2338.937	103.19
2342.792	101.92
2346.643	100.28
2350.492	96.19
2354.336	86.47
2358.178	74.01
2362.015	67.01
2365.85	66.01
2369.681	65.28
2373.508	65.47
2377.333	66.1
2381.153	65.74
2384.971	65.83
2388.785	65.74
2392.595	64.1
2396.402	63.56
2400.206	63.38
2404.007	62.1
2407.804	60.83
2411.597	60.19
2415.388	59.01
2419.174	58.19
2422.958	57.38
2426.738	55.92
2430.515	55.47
2434.289	55.56
2438.059	54.56
2441.825	53.74
2445.589	52.83
2449.349	52.19
2453.106	50.92
2456.859	50.56
2460.61	49.19
2464.356	47.83
2468.1	46.65
2471.84	44.83
2475.577	43.74
2479.311	42.56
2483.041	41.47
2486.768	40.56
2490.492	39.74
2494.213	39.56
2497.93	39.01
2501.644	38.1
2505.355	37.65
2509.062	37.01
2512.766	36.74
2516.467	35.83
2520.165	34.56
2523.859	33.65
2527.551	32.92
2531.239	32.1
2534.923	30.83
2538.605	29.19
2542.283	28.28
2545.958	27.56
2549.63	26.28
2553.299	25.92
2556.964	25.19
2560.626	25.01
2564.285	23.92
2567.941	22.83
2571.594	21.65
2575.243	20.47
2578.89	19.92
2582.533	19.56
2586.173	19.19
2589.809	19.65
2593.443	19.38
2597.073	18.19
2600.701	17.47
2604.325	16.37
2607.946	15.92
2611.564	15.1
2615.178	15.28
2618.79	14.38
2622.398	13.19
2626.004	12.01
2629.606	9.83
2633.205	7.56
2636.801	6.28
2640.394	5.92
2643.983	6.01
2647.57	5.47
2651.153	5.19
2654.734	3.56
2658.311	3.01
2661.885	2.65
2665.456	2.1
2669.025	2.19
2672.589	2.28
2676.151	2.19
2679.71	1.74
2683.266	1.01
2686.819	0.01
2690.368	-0.99
2693.915	-0.99
2697.458	-1.08
2700.999	-1.99
2704.536	-2.35
2708.071	-3.26
2711.602	-3.62
2715.13	-3.26
2718.656	-4.44
2722.178	-4.53
2725.697	-4.81
2729.214	-4.81
2732.727	-6.53
2736.237	-6.9
2739.744	-6.9
2743.249	-7.9
2746.75	-9.17
2750.248	-10.44
2753.743	-12.26
2757.236	-12.81
2760.725	-14.9
2764.211	-15.99
2767.695	-17.17
2771.175	-17.35
2774.652	-18.9
2778.127	-20.17
2781.598	-20.53
2785.067	-20.17
2788.532	-20.08
2791.995	-20.44
2795.455	-21.35
2798.911	-20.9
2802.365	-20.53
2805.816	-20.72
2809.264	-20.62
2812.709	-20.35
2816.151	-20.08
2819.59	-20.44
2823.026	-19.72
2826.46	-20.08
2829.89	-19.53
2833.318	-19.99
2836.742	-20.08
2840.164	-21.26
2843.583	-21.9
2846.999	-21.53
2850.412	-21.81
2853.822	-21.99
2857.229	-21.81
2860.634	-22.62
2864.035	-23.17
2867.434	-24.08
2870.83	-23.44
2874.223	-24.17
2877.613	-24.62
2881	-24.44
2884.385	-25.9
2887.766	-27.17
2891.145	-28.26
2894.521	-29.72
2897.894	-31.53
2901.264	-32.62
2904.631	-33.17
2907.996	-34.44
2911.358	-34.99
2914.717	-35.62
2918.073	-36.9
2921.426	-37.62
2924.777	-37.17
2928.124	-37.72
2931.469	-37.99
2934.811	-37.72
2938.15	-37.81
2941.487	-38.9
2944.821	-38.99
2948.152	-39.17
2951.48	-39.08
2954.805	-38.99
2958.128	-38.53
2961.447	-39.26
2964.765	-39.62
2968.079	-39.99
2971.39	-39.53
2974.699	-39.26
2978.005	-38.72
2981.308	-38.99
2984.609	-39.62
2987.907	-39.99
2991.202	-40.72
2994.494	-41.44
2997.784	-41.9
3001.07	-42.35
3004.355	-42.72
3007.636	-44.35
3010.915	-45.62
3014.191	-46.72
3017.464	-47.44
3020.734	-47.72
3024.002	-48.17
3027.267	-49.53
3030.53	-50.17
3033.789	-50.99
3037.046	-51.26
3040.301	-51.17
3043.552	-51.26
3046.801	-51.9
3050.048	-52.08
3053.291	-52.35
3056.532	-51.9
3059.771	-51.53
3063.006	-50.35
3066.239	-49.72
3069.469	-49.35
3072.697	-49.62
3075.922	-49.72
3079.144	-49.53
3082.364	-49.26
3085.581	-49.35
3088.795	-48.9
3092.007	-49.62
3095.216	-50.08
3098.423	-49.99
3101.627	-50.17
3104.828	-50.35
3108.026	-49.99
3111.222	-51.08
3114.416	-51.9
3117.607	-52.62
3120.795	-53.08
3123.98	-54.44
3127.163	-55.26
3130.344	-55.81
3133.521	-56.17
3136.696	-57.17
3139.869	-57.72
3143.039	-59.08
3146.206	-58.99
3149.371	-59.26
3152.533	-58.81
3155.693	-59.17
3158.85	-58.53
3162.005	-59.35
3165.157	-59.99
3168.306	-60.9
3171.453	-61.44
3174.597	-61.62
3177.739	-61.08
3180.878	-61.62
3184.014	-61.44
3187.149	-61.17
3190.28	-60.44
3193.409	-60.72
3196.536	-59.44
3199.659	-59.08
3202.781	-58.62
3205.9	-57.9
3209.016	-58.53
3212.13	-58.44
3215.241	-57.9
3218.35	-58.17
3221.456	-58.9
3224.56	-59.53
3227.661	-59.99
3230.76	-60.62
3233.856	-61.62
3236.95	-62.35
3240.041	-63.9
3243.13	-63.62
3246.216	-64.08
3249.3	-64.81
3252.382	-65.17
3255.46	-65.62
3258.537	-66.26
3261.611	-66.9
3264.682	-67.44
3267.751	-66.9
3270.818	-67.08
3273.882	-66.99
3276.943	-66.9
3280.002	-67.08
3283.059	-66.72
3286.113	-66.81
3289.165	-66.44
3292.214	-65.9
3295.261	-65.62
3298.306	-65.62
3301.348	-65.62
3304.387	-65.62
3307.425	-64.81
3310.459	-65.17
3313.492	-65.53
3316.521	-66.17
3319.549	-65.72
3322.574	-65.53
3325.597	-66.35
3328.617	-66.81
3331.635	-66.72
3334.65	-67.17
3337.663	-66.9
3340.674	-67.08
3343.682	-67.72
3346.688	-67.62
3349.691	-67.99
3352.692	-68.81
3355.691	-69.72
3358.687	-69.72
3361.681	-70.53
3364.673	-70.99
3367.662	-71.26
3370.649	-72.44
3373.633	-73.35
3376.615	-73.81
3379.595	-74.17
3382.572	-73.35
3385.547	-73.08
3388.52	-73.35
3391.49	-73.08
3394.458	-71.62
3397.424	-71.72
3400.387	-72.08
3403.348	-71.53
3406.307	-71.26
3409.263	-70.35
3412.217	-69.9
3415.168	-70.72
3418.118	-70.81
3421.065	-70.44
3424.009	-70.72
3426.951	-70.72
3429.891	-70.17
3432.829	-69.53
3435.764	-69.44
3438.697	-69.17
3441.628	-68.99
3444.557	-69.53
3447.483	-69.35
3450.407	-70.08
3453.328	-70.72
3456.247	-70.35
3459.164	-70.99
3462.079	-71.17
3464.991	-71.44
3467.902	-71.72
3470.809	-72.17
3473.715	-72.9
3476.618	-73.26
3479.519	-73.44
3482.418	-72.99
3485.315	-72.35
3488.209	-73.17
3491.101	-73.35
3493.99	-73.26
3496.878	-73.17
3499.763	-72.72
3502.646	-72.62
3505.527	-72.17
3508.405	-71.53
3511.281	-71.44
3514.155	-71.17
3517.027	-71.26
3519.897	-70.72
3522.764	-70.26
3525.629	-70.53
3528.492	-70.35
3531.352	-69.81
3534.211	-69.35
3537.067	-69.62
3539.921	-70.17
3542.773	-70.53
3545.622	-70.9
3548.469	-70.53
3551.315	-70.72
3554.157	-71.44
3556.998	-71.9
3559.837	-72.08
3562.673	-73.44
3565.507	-73.44
3568.339	-73.72
3571.169	-73.17
3573.996	-73.17
3576.822	-73.26
3579.645	-73.99
3582.466	-73.53
3585.285	-73.72
3588.101	-73.53
3590.916	-74.44
3593.728	-73.72
3596.538	-74.44
3599.346	-74.26
3602.152	-74.17
3604.956	-74.53
3607.757	-74.53
3610.556	-74.08
3613.354	-74.08
3616.149	-73.72
3618.942	-73.81
3621.732	-72.99
3624.521	-73.62
3627.307	-73.72
3630.092	-73.44
3632.874	-74.17
3635.654	-73.53
3638.432	-73.26
3641.208	-73.9
3643.982	-74.62
3646.753	-74.35
3649.523	-74.72
3652.29	-75.35
3655.055	-75.72
3657.818	-75.72
3660.579	-76.35
3663.338	-76.81
3666.095	-77.26
3668.849	-78.35
3671.602	-78.26
3674.352	-78.72
3677.101	-79.53
3679.847	-78.99
3682.591	-78.53
3685.333	-77.62
3688.073	-77.81
3690.811	-77.81
3693.547	-77.08
3696.281	-77.08
3699.013	-76.62
3701.742	-76.35
3704.47	-76.26
3707.195	-76.26
3709.919	-77.17
3712.64	-77.44
3715.359	-77.72
3718.076	-78.26
3720.792	-78.62
3723.505	-78.99
3726.216	-78.9
3728.925	-78.99
3731.632	-79.53
3734.336	-79.26
3737.039	-78.99
3739.74	-77.72
3742.439	-77.35
3745.136	-78.17
3747.83	-77.44
3750.523	-77.26
3753.213	-77.26
3755.902	-77.81
3758.589	-76.99
3761.273	-76.17
3763.956	-76.62
3766.636	-76.35
3769.315	-76.72
3771.991	-78.35
3774.665	-80.17
3777.338	-80.35
3780.008	-80.44
3782.677	-80.26
3785.343	-79.99
3788.007	-80.62
3790.67	-81.72
3793.33	-81.35
3795.989	-81.44
3798.645	-81.44
3801.299	-80.26
3803.952	-77.81
3806.602	-78.17
3809.251	-78.08
3811.897	-78.44
3814.542	-78.62
3817.184	-78.26
3819.825	-78.81
3822.463	-78.72
3825.1	-79.26
3827.735	-79.81
3830.367	-79.72
3832.998	-79.9
3835.627	-79.35
3838.253	-78.81
3840.878	-78.99
3843.501	-78.17
3846.122	-78.53
3848.741	-76.99
3851.358	-77.08
3853.973	-75.72
3856.586	-73.99
3859.197	-71.99
3861.806	-68.17
3864.414	-62.26
3867.019	-53.26
3869.622	-39.9
3872.224	-25.44
3874.823	-13.99
3877.421	-7.53
3880.016	-3.81
3882.61	-2.9
3885.202	-3.62
3887.792	-4.9
3890.38	-8.81
3892.966	-14.99
3895.55	-24.35
3898.132	-37.17
3900.713	-52.62
3903.291	-64.35
3905.868	-71.72
3908.442	-75.62
3911.015	-77.44
3913.586	-78.53
3916.155	-79.35
3918.722	-79.53
3921.287	-79.53
3923.85	-80.08
3926.411	-79.62
3928.971	-79.62
3931.528	-79.35
3934.084	-78.62
3936.638	-78.62
3939.19	-79.26
3941.74	-79.17
3944.288	-78.81
3946.834	-77.53
3949.378	-76.72
3951.921	-75.99
3954.462	-76.62
3957	-75.72
3959.537	-75.9
3962.072	-75.9
3964.606	-75.44
3967.137	-74.53
3969.667	-74.08
3972.194	-73.99
3974.72	-75.08
3977.244	-75.81
3979.766	-75.26
3982.286	-74.9
3984.805	-75.35
3987.321	-75.44
3989.836	-76.08
3992.349	-76.17
3994.86	-76.26
3997.369	-76.62
3999.877	-77.17
4002.382	-77.17
4004.886	-77.08
4007.388	-78.26
4009.888	-78.62
4012.386	-79.08
4014.883	-79.35
4017.377	-79.17
4019.87	-79.44
4022.361	-79.72
4024.85	-79.9
4027.338	-79.81
4029.823	-79.9
4032.307	-80.17
4034.789	-79.72
4037.269	-79.44
4039.747	-78.9
4042.224	-78.08
4044.699	-77.53
4047.172	-77.17
4049.643	-76.9
4052.112	-76.08
4054.58	-75.81
4057.046	-75.72
4059.51	-75.08
4061.972	-75.17
4064.432	-75.17
4066.891	-74.99
4069.348	-75.35
4071.803	-75.81
4074.256	-75.99
4076.708	-76.17
4079.158	-76.99
4081.606	-77.53
4084.052	-77.81
4086.497	-78.17
4088.939	-78.53
4091.38	-78.99
4093.819	-66.72
4096.257	-55.35
4098.693	-43.99
4101.127	-33.08
4103.559	-21.81
4105.989	-11.62
4108.418	-11.17
4110.845	-11.17
4113.27	-11.72
4115.694	-11.9
4118.115	-12.08
4120.535	-24.62
4122.954	-36.44
4125.37	-48.35
4127.785	-59.72
4130.198	-71.26
4132.609	-81.62
4135.019	-82.18
4137.427	-82.25
4139.833	-82.05
4142.237	-81.79