File: Data/Raman/2017-08-24 - Glass, alluminum 108/Aluminum II [full set]/Alu-BS-107 30s,I=1, BC=3, 1sta _RamanShift_1.txt
Data from Alu-BS-107 30s,I=1, BC=3, 1sta _RamanShift_1.txt Node

Date: Thu Aug 24 13:48:21 IDT 2017
User: aro
Spectrometer: QEPB0276
Trigger mode: 0
Integration Time (sec): 3.000000E1
Scans to average: 1
Electric dark correction enabled: true
Nonlinearity correction enabled: false
Boxcar width: 5
XAxis mode: Raman Shifts
Number of Pixels in Spectrum: 1044
>>>>>Begin Spectral Data<<<<<
160.701	205.33
166.742	311.79
172.777	422.75
178.805	520.39
184.826	602.5
190.841	670.41
196.849	792.32
202.85	915.86
208.845	1042.05
214.833	1163.05
220.815	1272.95
226.789	1358.77
232.758	1413.05
238.719	1447.14
244.674	1474.05
250.623	1499.32
256.565	1526.68
262.5	1553.41
268.429	1581.32
274.351	1606.68
280.267	1633.23
286.176	1654.77
292.079	1676.59
297.975	1700.59
303.865	1722.68
309.748	1743.32
315.625	1764.59
321.495	1783.41
327.359	1800.05
333.217	1817.05
339.068	1836.41
344.912	1858.41
350.751	1892.86
356.583	1929.23
362.408	1958.77
368.227	1980.41
374.04	2001.68
379.847	2035.5
385.647	2100.5
391.44	2199.23
397.228	2297.14
403.009	2355.41
408.784	2373.86
414.553	2369.23
420.315	2355.05
426.071	2342.23
431.821	2331.59
437.565	2318.05
443.302	2284.86
449.033	2218.41
454.758	2116.41
460.477	2011.5
466.189	1939.77
471.896	1895.68
477.596	1850.14
483.29	1793.41
488.978	1729.23
494.66	1661.86
500.335	1590.05
506.005	1517.59
511.668	1442.14
517.325	1365.59
522.977	1286.41
528.622	1207.59
534.261	1135.59
539.894	1075.14
545.521	1030.14
551.141	996.86
556.756	970.68
562.365	950.5
567.968	934.95
573.565	924.86
579.155	915.77
584.74	907.68
590.319	900.86
595.892	893.23
601.459	887.5
607.02	883.32
612.575	886.5
618.124	901.05
623.667	921.41
629.204	935.14
634.735	933.41
640.261	925.23
645.781	916.41
651.294	906.23
656.802	897.05
662.304	886.14
667.8	873.86
673.29	852.77
678.775	821.14
684.254	783.86
689.726	753.59
695.193	736.86
700.655	727.86
706.11	722.68
711.56	719.77
717.004	719.32
722.442	724.41
727.874	731.68
733.301	738.14
738.722	741.41
744.137	743.86
749.547	748.23
754.951	756.68
760.349	763.41
765.741	772.77
771.128	782.05
776.509	788.05
781.885	788.95
787.254	786.23
792.618	784.86
797.977	785.32
803.33	786.41
808.677	783.14
814.019	777.59
819.355	771.05
824.686	759.32
830.011	745.68
835.33	731.32
840.644	716.77
845.952	702.5
851.255	687.41
856.552	672.41
861.844	658.68
867.13	646.95
872.41	633.68
877.686	621.5
882.955	611.05
888.219	601.41
893.478	593.95
898.731	586.5
903.979	581.59
909.221	577.32
914.458	575.23
919.69	572.68
924.916	570.05
930.136	567.86
935.351	566.68
940.561	564.68
945.766	564.05
950.965	560.95
956.158	559.5
961.347	554.32
966.529	550.77
971.707	546.77
976.879	543.32
982.046	540.41
987.208	539.95
992.364	539.41
997.515	539.32
1002.66	540.14
1007.801	542.95
1012.936	544.5
1018.066	548.5
1023.19	552.68
1028.309	555.77
1033.423	558.14
1038.532	560.32
1043.636	561.41
1048.734	561.77
1053.827	563.5
1058.915	562.86
1063.998	562.41
1069.075	561.05
1074.147	559.68
1079.214	556.05
1084.276	551.95
1089.333	548.68
1094.385	545.14
1099.431	539.95
1104.472	534.05
1109.509	526.32
1114.54	519.23
1119.565	513.41
1124.586	509.23
1129.602	504.86
1134.613	501.68
1139.618	500.41
1144.619	498.95
1149.614	497.32
1154.604	497.77
1159.589	498.32
1164.57	499.77
1169.545	502.5
1174.515	502.68
1179.48	504.05
1184.44	503.86
1189.395	504.5
1194.345	504.86
1199.29	505.14
1204.23	505.68
1209.165	504.86
1214.095	504.86
1219.021	504.59
1223.941	501.86
1228.856	499.68
1233.766	495.41
1238.672	492.05
1243.572	487.14
1248.467	480.23
1253.358	472.86
1258.244	466.59
1263.124	460.86
1268	455.14
1272.871	450.05
1277.737	447.14
1282.599	444.59
1287.455	443.59
1292.306	442.41
1297.153	442.77
1301.995	444.32
1306.832	445.77
1311.664	446.5
1316.491	445.5
1321.314	445.05
1326.132	442.95
1330.945	440.41
1335.753	437.77
1340.556	433.77
1345.354	429.86
1350.148	424.32
1354.937	419.59
1359.722	415.77
1364.501	411.05
1369.276	406.41
1374.046	401.5
1378.811	397.5
1383.572	392.77
1388.327	388.32
1393.079	384.59
1397.825	380.86
1402.567	378.5
1407.304	376.05
1412.036	373.32
1416.764	372.23
1421.487	373.5
1426.205	374.59
1430.919	375.59
1435.628	377.5
1440.333	379.95
1445.032	380.77
1449.727	382.14
1454.418	382.5
1459.104	382.68
1463.785	382.5
1468.462	381.95
1473.134	380.14
1477.802	378.95
1482.465	378.14
1487.123	378.41
1491.777	377.05
1496.426	377.32
1501.071	376.41
1505.711	375.68
1510.347	374.05
1514.978	372.41
1519.604	370.41
1524.226	368.77
1528.844	367.86
1533.457	370.59
1538.065	373.41
1542.669	374.68
1547.269	371.59
1551.864	368.23
1556.454	365.5
1561.041	362.86
1565.622	361.23
1570.199	359.41
1574.772	356.77
1579.34	352.95
1583.904	345.41
1588.464	336.05
1593.019	328.05
1597.569	324.86
1602.115	322.23
1606.657	320.32
1611.195	318.32
1615.728	316.23
1620.256	314.14
1624.78	312.59
1629.3	312.05
1633.816	311.5
1638.327	312.05
1642.834	313.86
1647.336	314.59
1651.834	317.05
1656.328	316.68
1660.817	316.77
1665.302	316.95
1669.783	316.23
1674.259	315.32
1678.732	313.32
1683.199	311.68
1687.663	308.32
1692.122	303.77
1696.577	300.14
1701.028	295.5
1705.474	291.23
1709.917	288.23
1714.355	283.5
1718.788	278.86
1723.218	273.95
1727.643	269.77
1732.064	264.05
1736.481	259.23
1740.893	255.23
1745.301	250.77
1749.705	246.23
1754.105	242.5
1758.501	239.05
1762.893	235.32
1767.28	233.41
1771.663	232.14
1776.042	229.32
1780.417	227.05
1784.787	224.95
1789.154	224.23
1793.516	222.05
1797.874	219.05
1802.228	217.5
1806.578	214.14
1810.924	212.23
1815.266	209.05
1819.603	204.95
1823.937	202.86
1828.266	200.68
1832.591	198.41
1836.913	196.41
1841.23	195.23
1845.543	195.59
1849.852	194.23
1854.156	194.05
1858.457	193.86
1862.754	193.59
1867.047	193.77
1871.335	193.77
1875.62	194.95
1879.9	195.86
1884.177	195.41
1888.449	195.05
1892.718	195.14
1896.982	194.41
1901.243	193.95
1905.499	192.59
1909.752	192.59
1914	192.5
1918.245	191.77
1922.485	191.23
1926.722	189.23
1930.954	188.05
1935.183	186.77
1939.408	184.32
1943.628	182.5
1947.845	179.32
1952.058	177.59
1956.267	173.95
1960.472	170.05
1964.673	166.59
1968.87	162.68
1973.063	159.5
1977.252	156.14
1981.438	153.77
1985.619	151.23
1989.797	149.5
1993.971	149.14
1998.14	146.59
2002.306	146.41
2006.469	145.95
2010.627	144.05
2014.781	142.5
2018.932	141.23
2023.078	139.32
2027.221	137.14
2031.36	134.86
2035.495	132.86
2039.627	131.41
2043.754	131.23
2047.878	129.5
2051.998	129.32
2056.114	130.59
2060.226	130.77
2064.334	131.05
2068.439	132.14
2072.54	133.05
2076.637	133.77
2080.73	134.41
2084.82	133.68
2088.906	132.23
2092.988	131.77
2097.066	129.14
2101.14	127.14
2105.211	125.5
2109.278	123.95
2113.342	122.32
2117.401	120.95
2121.457	119.68
2125.509	117.95
2129.558	116.32
2133.602	114.86
2137.643	113.23
2141.681	112.32
2145.714	110.23
2149.744	107.86
2153.77	105.86
2157.793	103.41
2161.812	100.77
2165.827	98.05
2169.838	95.77
2173.846	93.59
2177.851	91.68
2181.851	89.86
2185.848	88.68
2189.841	86.95
2193.831	86.14
2197.817	85.14
2201.799	84.5
2205.778	84.14
2209.753	84.14
2213.725	83.68
2217.693	83.05
2221.657	83.41
2225.618	82.32
2229.575	81.5
2233.529	81.86
2237.479	81.05
2241.425	80.05
2245.368	79.14
2249.307	78.14
2253.243	77.05
2257.175	76.23
2261.104	75.14
2265.029	74.14
2268.95	73.86
2272.868	73.14
2276.783	71.86
2280.694	71.05
2284.601	70.14
2288.505	69.32
2292.405	68.14
2296.302	67.23
2300.195	66.5
2304.085	67.41
2307.971	70.59
2311.854	79.59
2315.734	89.86
2319.609	95.59
2323.482	95.32
2327.351	94.86
2331.216	93.86
2335.078	92.77
2338.937	91.5
2342.792	90.05
2346.643	87.68
2350.492	82.59
2354.336	71.41
2358.178	58.95
2362.015	51.86
2365.85	51.41
2369.681	50.68
2373.508	50.32
2377.333	50.14
2381.153	49.59
2384.971	49.86
2388.785	49.95
2392.595	48.05
2396.402	47.05
2400.206	46.95
2404.007	45.95
2407.804	44.05
2411.597	43.5
2415.388	42.68
2419.174	42.14
2422.958	42.32
2426.738	41.23
2430.515	39.86
2434.289	40.41
2438.059	39.77
2441.825	39.59
2445.589	38.68
2449.349	38.59
2453.106	37.95
2456.859	36.95
2460.61	36.5
2464.356	34.77
2468.1	33.86
2471.84	33.05
2475.577	32.68
2479.311	32.86
2483.041	31.59
2486.768	31.23
2490.492	30.68
2494.213	30.41
2497.93	31.77
2501.644	31.32
2505.355	31.77
2509.062	31.05
2512.766	30.68
2516.467	29.59
2520.165	28.68
2523.859	28.32
2527.551	27.95
2531.239	27.5
2534.923	26.86
2538.605	24.68
2542.283	23.86
2545.958	23.41
2549.63	22.95
2553.299	22.95
2556.964	22.41
2560.626	22.5
2564.285	22.5
2567.941	21.41
2571.594	21.05
2575.243	20.41
2578.89	19.23
2582.533	17.95
2586.173	17.32
2589.809	17.68
2593.443	16.86
2597.073	16.23
2600.701	15.05
2604.325	13.5
2607.946	13.14
2611.564	11.23
2615.178	10.05
2618.79	9.95
2622.398	9.23
2626.004	8.14
2629.606	6.05
2633.205	5.32
2636.801	4.68
2640.394	3.23
2643.983	1.86
2647.57	0.68
2651.153	0.68
2654.734	0.32
2658.311	-0.59
2661.885	-0.86
2665.456	-1.77
2669.025	-1.59
2672.589	-2.77
2676.151	-3.41
2679.71	-3.41
2683.266	-3.5
2686.819	-3.5
2690.368	-3.95
2693.915	-4.68
2697.458	-4.95
2700.999	-5.32
2704.536	-5.05
2708.071	-5.41
2711.602	-5.23
2715.13	-5.14
2718.656	-5.23
2722.178	-4.32
2725.697	-4.32
2729.214	-4.14
2732.727	-4.14
2736.237	-3.95
2739.744	-4.14
2743.249	-4.41
2746.75	-5.59
2750.248	-6.68
2753.743	-8.59
2757.236	-9.59
2760.725	-11.59
2764.211	-12.77
2767.695	-14.32
2771.175	-15.14
2774.652	-15.59
2778.127	-16.86
2781.598	-18.41
2785.067	-18.86
2788.532	-18.59
2791.995	-17.32
2795.455	-17.59
2798.911	-16.86
2802.365	-16.5
2805.816	-16.14
2809.264	-16.41
2812.709	-16.95
2816.151	-16.95
2819.59	-16.59
2823.026	-15.68
2826.46	-16.5
2829.89	-16.86
2833.318	-17.14
2836.742	-17.86
2840.164	-18.68
2843.583	-19.14
2846.999	-19.14
2850.412	-19.23
2853.822	-18.77
2857.229	-18.32
2860.634	-18.77
2864.035	-19.05
2867.434	-19.86
2870.83	-19.77
2874.223	-20.05
2877.613	-20.05
2881	-20.77
2884.385	-21.41
2887.766	-22.86
2891.145	-24.95
2894.521	-26.95
2897.894	-28.32
2901.264	-29.23
2904.631	-30.41
2907.996	-31.68
2911.358	-32.95
2914.717	-34.77
2918.073	-35.86
2921.426	-37.05
2924.777	-37.05
2928.124	-36.86
2931.469	-37.14
2934.811	-37.68
2938.15	-37.86
2941.487	-38.41
2944.821	-38.23
2948.152	-37.77
2951.48	-37.68
2954.805	-37.32
2958.128	-37.23
2961.447	-37.41
2964.765	-37.05
2968.079	-36.95
2971.39	-36.59
2974.699	-36.32
2978.005	-35.59
2981.308	-35.68
2984.609	-36.77
2987.907	-36.68
2991.202	-37.14
2994.494	-37.59
2997.784	-38.14
3001.07	-38.68
3004.355	-39.23
3007.636	-40.59
3010.915	-42.05
3014.191	-43.5
3017.464	-44.05
3020.734	-44.41
3024.002	-45.32
3027.267	-45.77
3030.53	-46.23
3033.789	-47.32
3037.046	-48.14
3040.301	-48.77
3043.552	-48.95
3046.801	-48.77
3050.048	-48.23
3053.291	-49.41
3056.532	-49.5
3059.771	-49.05
3063.006	-48.86
3066.239	-48.41
3069.469	-48.05
3072.697	-48.32
3075.922	-47.77
3079.144	-47.41
3082.364	-47.41
3085.581	-47.68
3088.795	-46.95
3092.007	-46.86
3095.216	-47.05
3098.423	-47.5
3101.627	-48.05
3104.828	-47.86
3108.026	-47.68
3111.222	-48.68
3114.416	-48.86
3117.607	-49.32
3120.795	-49.86
3123.98	-51.14
3127.163	-51.86
3130.344	-52.68
3133.521	-52.5
3136.696	-53.05
3139.869	-53.68
3143.039	-54.59
3146.206	-54.41
3149.371	-55.41
3152.533	-56.05
3155.693	-56.59
3158.85	-56.05
3162.005	-56.86
3165.157	-57.05
3168.306	-58.14
3171.453	-58.32
3174.597	-58.59
3177.739	-58.41
3180.878	-59.14
3184.014	-58.77
3187.149	-58.05
3190.28	-57.95
3193.409	-58.41
3196.536	-57.05
3199.659	-56.68
3202.781	-56.59
3205.9	-56.86
3209.016	-57.32
3212.13	-56.86
3215.241	-56.5
3218.35	-56.77
3221.456	-57.68
3224.56	-57.77
3227.661	-58.14
3230.76	-58.68
3233.856	-59.68
3236.95	-59.77
3240.041	-60.5
3243.13	-60.14
3246.216	-60.68
3249.3	-61.5
3252.382	-61.77
3255.46	-61.86
3258.537	-62.05
3261.611	-62.14
3264.682	-62.32
3267.751	-61.41
3270.818	-62.32
3273.882	-62.23
3276.943	-62.59
3280.002	-62.77
3283.059	-62.59
3286.113	-63.05
3289.165	-62.77
3292.214	-62.68
3295.261	-62.86
3298.306	-63.41
3301.348	-63.5
3304.387	-63.23
3307.425	-62.68
3310.459	-62.68
3313.492	-62.68
3316.521	-62.95
3319.549	-62.14
3322.574	-62.59
3325.597	-63.14
3328.617	-63.05
3331.635	-62.86
3334.65	-63.59
3337.663	-63.14
3340.674	-63.86
3343.682	-64.68
3346.688	-64.95
3349.691	-65.77
3352.692	-66.59
3355.691	-66.41
3358.687	-66.41
3361.681	-67.5
3364.673	-67.95
3367.662	-67.86
3370.649	-68.95
3373.633	-68.95
3376.615	-69.14
3379.595	-69.5
3382.572	-68.68
3385.547	-68.86
3388.52	-69.5
3391.49	-69.41
3394.458	-68.23
3397.424	-68.41
3400.387	-68.77
3403.348	-68.14
3406.307	-67.77
3409.263	-67.05
3412.217	-66.14
3415.168	-66.05
3418.118	-65.05
3421.065	-64.59
3424.009	-64.23
3426.951	-63.95
3429.891	-63.41
3432.829	-62.77
3435.764	-62.68
3438.697	-63.14
3441.628	-63.05
3444.557	-63.32
3447.483	-63.5
3450.407	-64.14
3453.328	-64.05
3456.247	-63.86
3459.164	-64.23
3462.079	-64.23
3464.991	-65.05
3467.902	-65.41
3470.809	-65.14
3473.715	-65.95
3476.618	-67.05
3479.519	-67.5
3482.418	-67.95
3485.315	-67.86
3488.209	-69.14
3491.101	-69.77
3493.99	-70.23
3496.878	-69.59
3499.763	-69.5
3502.646	-69.68
3505.527	-69.23
3508.405	-69.14
3511.281	-68.59
3514.155	-68.5
3517.027	-68.95
3519.897	-68.41
3522.764	-67.68
3525.629	-66.95
3528.492	-67.14
3531.352	-66.68
3534.211	-66.86
3537.067	-67.59
3539.921	-67.23
3542.773	-67.5
3545.622	-67.68
3548.469	-67.59
3551.315	-67.77
3554.157	-67.95
3556.998	-68.68
3559.837	-68.59
3562.673	-69.23
3565.507	-69.05
3568.339	-68.5
3571.169	-69.05
3573.996	-69.5
3576.822	-69.95
3579.645	-70.59
3582.466	-70.68
3585.285	-71.68
3588.101	-71.86
3590.916	-72.77
3593.728	-72.59
3596.538	-73.05
3599.346	-73.05
3602.152	-73.23
3604.956	-73.23
3607.757	-72.41
3610.556	-71.86
3613.354	-71.59
3616.149	-70.95
3618.942	-71.14
3621.732	-70.68
3624.521	-71.14
3627.307	-71.05
3630.092	-71.41
3632.874	-71.14
3635.654	-71.14
3638.432	-71.05
3641.208	-71.77
3643.982	-72.5
3646.753	-72.41
3649.523	-72.59
3652.29	-73.23
3655.055	-73.59
3657.818	-73.59
3660.579	-73.86
3663.338	-74.41
3666.095	-74.59
3668.849	-75.23
3671.602	-75.05
3674.352	-74.77
3677.101	-75.59
3679.847	-75.59
3682.591	-75.86
3685.333	-75.23
3688.073	-75.5
3690.811	-75.14
3693.547	-74.5
3696.281	-74.41
3699.013	-74.59
3701.742	-74.14
3704.47	-74.59
3707.195	-74.59
3709.919	-74.77
3712.64	-74.59
3715.359	-74.68
3718.076	-74.95
3720.792	-75.41
3723.505	-75.68
3726.216	-75.32
3728.925	-75.5
3731.632	-76.05
3734.336	-75.68
3737.039	-75.68
3739.74	-75.5
3742.439	-75.32
3745.136	-75.68
3747.83	-75.68
3750.523	-75.5
3753.213	-75.32
3755.902	-76.23
3758.589	-75.77
3761.273	-75.23
3763.956	-75.59
3766.636	-75.68
3769.315	-75.23
3771.991	-76.77
3774.665	-78.77
3777.338	-78.5
3780.008	-78.14
3782.677	-78.77
3785.343	-78.32
3788.007	-78.32
3790.67	-78.95
3793.33	-78.77
3795.989	-78.41
3798.645	-78.5
3801.299	-76.68
3803.952	-74.05
3806.602	-73.86
3809.251	-74.41
3811.897	-74.23
3814.542	-74.41
3817.184	-74.59
3819.825	-74.77
3822.463	-74.59
3825.1	-74.86
3827.735	-75.32
3830.367	-75.77
3832.998	-76.32
3835.627	-76.32
3838.253	-75.77
3840.878	-75.86
3843.501	-75.14
3846.122	-75.23
3848.741	-74.59
3851.358	-74.5
3853.973	-72.95
3856.586	-71.32
3859.197	-68.77
3861.806	-64.41
3864.414	-56.59
3867.019	-44.14
3869.622	-26.95
3872.224	-9.59
3874.823	3.68
3877.421	10.68
3880.016	14.32
3882.61	14.86
3885.202	14.41
3887.792	12.77
3890.38	9.05
3892.966	0.95
3895.55	-11.77
3898.132	-28.41
3900.713	-46.05
3903.291	-59.41
3905.868	-67.5
3908.442	-71.59
3911.015	-73.14
3913.586	-74.32
3916.155	-75.14
3918.722	-75.68
3921.287	-75.41
3923.85	-75.59
3926.411	-75.77
3928.971	-76.14
3931.528	-76.05
3934.084	-75.68
3936.638	-75.23
3939.19	-75.77
3941.74	-75.5
3944.288	-75.14
3946.834	-73.95
3949.378	-72.86
3951.921	-72.14
3954.462	-72.05
3957	-71.41
3959.537	-71.23
3962.072	-70.32
3964.606	-70.5
3967.137	-69.86
3969.667	-69.5
3972.194	-69.41
3974.72	-70.41
3977.244	-71.41
3979.766	-71.5
3982.286	-71.59
3984.805	-72.5
3987.321	-72.86
3989.836	-73.95
3992.349	-73.77
3994.86	-74.14
3997.369	-74.5
3999.877	-75.05
4002.382	-75.68
4004.886	-75.86
4007.388	-76.41
4009.888	-77.05
4012.386	-76.5
4014.883	-76.41
4017.377	-75.95
4019.87	-76.41
4022.361	-76.59
4024.85	-76.86
4027.338	-76.86
4029.823	-76.68
4032.307	-76.86
4034.789	-76.59
4037.269	-75.59
4039.747	-75.32
4042.224	-74.77
4044.699	-74.41
4047.172	-73.68
4049.643	-73.14
4052.112	-72.77
4054.58	-72.86
4057.046	-72.59
4059.51	-72.14
4061.972	-72.32
4064.432	-72.59
4066.891	-72.77
4069.348	-73.14
4071.803	-73.23
4074.256	-73.41
4076.708	-73.86
4079.158	-74.05
4081.606	-73.86
4084.052	-74.14
4086.497	-74.32
4088.939	-74.5
4091.38	-74.5
4093.819	-60.5
4096.257	-46.59
4098.693	-32.59
4101.127	-19.77
4103.559	-7.23
4105.989	4.59
4108.418	4.77
4110.845	4.41
4113.27	3.41
4115.694	3.14
4118.115	2.86
4120.535	-11.23
4122.954	-25.59
4125.37	-40.14
4127.785	-53.77
4130.198	-66.41
4132.609	-78.7
4135.019	-79.28
4137.427	-78.88
4139.833	-78.07
4142.237	-77.83