File: Data/Raman/2017-08-24 - Glass, alluminum 108/Aluminum II [full set]/Alu-EC1-2 30s,I=1, BC=3, 1sta _RamanShift_3.txt
Data from Alu-EC1-2 30s,I=1, BC=3, 1sta _RamanShift_3.txt Node

Date: Thu Aug 24 13:33:51 IDT 2017
User: aro
Spectrometer: QEPB0276
Trigger mode: 0
Integration Time (sec): 3.000000E1
Scans to average: 1
Electric dark correction enabled: true
Nonlinearity correction enabled: false
Boxcar width: 5
XAxis mode: Raman Shifts
Number of Pixels in Spectrum: 1044
>>>>>Begin Spectral Data<<<<<
160.701	229.08
166.742	356.32
172.777	489.62
178.805	608.31
184.826	705.15
190.841	787.02
196.849	932.11
202.85	1080.3
208.845	1230.2
214.833	1375.57
220.815	1504.3
226.789	1603.93
232.758	1667.2
238.719	1704.84
244.674	1733.02
250.623	1762.93
256.565	1792.75
262.5	1822.11
268.429	1848.93
274.351	1876.2
280.267	1902.3
286.176	1927.39
292.079	1951.57
297.975	1975.66
303.865	1998.93
309.748	2019.93
315.625	2039.39
321.495	2058.66
327.359	2077.2
333.217	2097.02
339.068	2117.3
344.912	2142.11
350.751	2178.75
356.583	2219.2
362.408	2250.57
368.227	2272.66
374.04	2295.66
379.847	2334.57
385.647	2404.48
391.44	2512.02
397.228	2621.75
403.009	2685.3
408.784	2702.39
414.553	2695.2
420.315	2677.11
426.071	2663.84
431.821	2652.2
437.565	2636.11
443.302	2600.02
449.033	2526.3
454.758	2413.93
460.477	2295.66
466.189	2215.93
471.896	2168.02
477.596	2116.93
483.29	2057.57
488.978	1985.57
494.66	1910.66
500.335	1831.84
506.005	1747.93
511.668	1664.84
517.325	1577.93
522.977	1489.48
528.622	1400.48
534.261	1320.02
539.894	1252.57
545.521	1199.39
551.141	1161.39
556.756	1130.93
562.365	1107.48
567.968	1091.2
573.565	1078.84
579.155	1068.3
584.74	1060.3
590.319	1055.3
595.892	1047.39
601.459	1040.11
607.02	1036.3
612.575	1040.2
618.124	1059.75
623.667	1084.39
629.204	1099.11
634.735	1098.57
640.261	1090.3
645.781	1079.02
651.294	1065.66
656.802	1055.39
662.304	1045.3
667.8	1031.2
673.29	1008.48
678.775	969.93
684.254	926.2
689.726	891.48
695.193	871.93
700.655	862.39
706.11	855.2
711.56	852.11
717.004	850.48
722.442	852.93
727.874	857.93
733.301	862.57
738.722	866.39
744.137	869.02
749.547	874.02
754.951	880.48
760.349	888.11
765.741	898.75
771.128	908.11
776.509	914.2
781.885	917.39
787.254	915.93
792.618	916.75
797.977	917.84
803.33	918.93
808.677	917.3
814.019	913.39
819.355	904.66
824.686	892.48
830.011	878.66
835.33	863.39
840.644	846.66
845.952	830.93
851.255	814.48
856.552	799.39
861.844	784.3
867.13	768.75
872.41	753.57
877.686	740.39
882.955	727.02
888.219	716.2
893.478	709.02
898.731	700.39
903.979	694.93
909.221	689.57
914.458	685.02
919.69	682.57
924.916	681.3
930.136	679.57
935.351	677.48
940.561	675.48
945.766	672.2
950.965	666.75
956.158	664.2
961.347	660.66
966.529	655.66
971.707	651.57
976.879	648.11
982.046	645.11
987.208	643.2
992.364	643.02
997.515	644.57
1002.66	647.66
1007.801	653.3
1012.936	658.2
1018.066	663.39
1023.19	668.02
1028.309	671.75
1033.423	673.3
1038.532	675.2
1043.636	678.02
1048.734	678.93
1053.827	679.11
1058.915	677.75
1063.998	675.57
1069.075	673.11
1074.147	669.48
1079.214	666.93
1084.276	663.39
1089.333	659.66
1094.385	654.39
1099.431	648.3
1104.472	641.57
1109.509	633.57
1114.54	625.93
1119.565	620.02
1124.586	613.3
1129.602	607.02
1134.613	602.3
1139.618	599.48
1144.619	597.93
1149.614	597.3
1154.604	596.84
1159.589	597.11
1164.57	598.3
1169.545	599.66
1174.515	599.93
1179.48	600.3
1184.44	599.75
1189.395	599.75
1194.345	599.11
1199.29	598.48
1204.23	598.84
1209.165	598.11
1214.095	597.84
1219.021	597.02
1223.941	596.3
1228.856	593.48
1233.766	589.93
1238.672	586.02
1243.572	579.75
1248.467	572.75
1253.358	564.66
1258.244	556.66
1263.124	549.3
1268	542.3
1272.871	536.75
1277.737	532.11
1282.599	528.57
1287.455	527.39
1292.306	526.84
1297.153	528.02
1301.995	528.3
1306.832	530.11
1311.664	529.2
1316.491	527.66
1321.314	524.48
1326.132	520.84
1330.945	514.02
1335.753	506.84
1340.556	499.11
1345.354	491.3
1350.148	483.02
1354.937	477.11
1359.722	469.48
1364.501	463.75
1369.276	458.84
1374.046	454.39
1378.811	450.48
1383.572	447.84
1388.327	445.2
1393.079	442.93
1397.825	440.57
1402.567	439.39
1407.304	438.11
1412.036	437.39
1416.764	437.48
1421.487	438.84
1426.205	440.48
1430.919	442.66
1435.628	444.48
1440.333	447.66
1445.032	449.2
1449.727	451.48
1454.418	450.57
1459.104	448.84
1463.785	446.2
1468.462	442.02
1473.134	436.48
1477.802	431.3
1482.465	425.02
1487.123	420.48
1491.777	414.39
1496.426	410.3
1501.071	405.02
1505.711	401.48
1510.347	398.3
1514.978	396.2
1519.604	394.11
1524.226	391.84
1528.844	391.48
1533.457	396.48
1538.065	401.48
1542.669	405.84
1547.269	405.48
1551.864	403.39
1556.454	402.39
1561.041	401.02
1565.622	401.02
1570.199	401.48
1574.772	401.75
1579.34	399.2
1583.904	391.75
1588.464	384.02
1593.019	375.57
1597.569	371.2
1602.115	370.48
1606.657	368.75
1611.195	366.3
1615.728	362.39
1620.256	359.2
1624.78	356.3
1629.3	355.39
1633.816	354.11
1638.327	352.75
1642.834	353.66
1647.336	354.2
1651.834	354.11
1656.328	353.11
1660.817	352.39
1665.302	351.02
1669.783	348.39
1674.259	344.02
1678.732	337.93
1683.199	331.66
1687.663	325.66
1692.122	317.75
1696.577	311.39
1701.028	303.39
1705.474	296.93
1709.917	291.48
1714.355	286.48
1718.788	281.57
1723.218	278.02
1727.643	275.02
1732.064	271.66
1736.481	267.93
1740.893	265.84
1745.301	262.93
1749.705	261.84
1754.105	258.2
1758.501	255.11
1762.893	251.66
1767.28	249.02
1771.663	245.02
1776.042	242.11
1780.417	239.3
1784.787	235.75
1789.154	232.93
1793.516	229.57
1797.874	224.3
1802.228	222.3
1806.578	218.66
1810.924	215.66
1815.266	213.75
1819.603	211.66
1823.937	209.93
1828.266	208.2
1832.591	206.66
1836.913	205.75
1841.23	204.93
1845.543	205.84
1849.852	205.11
1854.156	204.84
1858.457	204.48
1862.754	202.93
1867.047	203.66
1871.335	202.75
1875.62	202.48
1879.9	203.2
1884.177	202.11
1888.449	200.84
1892.718	199.2
1896.982	196.84
1901.243	194.66
1905.499	193.11
1909.752	191.66
1914	189.3
1918.245	187.48
1922.485	185.02
1926.722	181.93
1930.954	178.93
1935.183	176.48
1939.408	173.75
1943.628	171.57
1947.845	168.93
1952.058	166.84
1956.267	164.11
1960.472	160.39
1964.673	158.48
1968.87	157.11
1973.063	154.57
1977.252	153.2
1981.438	151.66
1985.619	151.11
1989.797	150.93
1993.971	150.75
1998.14	149.3
2002.306	149.48
2006.469	149.93
2010.627	148.57
2014.781	147.02
2018.932	145.93
2023.078	144.75
2027.221	143.11
2031.36	139.84
2035.495	137.93
2039.627	136.2
2043.754	134.75
2047.878	133.57
2051.998	132.84
2056.114	131.84
2060.226	131.2
2064.334	131.39
2068.439	131.11
2072.54	130.66
2076.637	131.39
2080.73	130.02
2084.82	128.66
2088.906	127.66
2092.988	124.84
2097.066	122.3
2101.14	121.3
2105.211	119.57
2109.278	117.75
2113.342	116.02
2117.401	114.39
2121.457	112.48
2125.509	111.11
2129.558	110.48
2133.602	108.93
2137.643	108.02
2141.681	107.39
2145.714	105.84
2149.744	104.57
2153.77	102.48
2157.793	100.3
2161.812	98.93
2165.827	97.48
2169.838	96.48
2173.846	95.11
2177.851	93.84
2181.851	92.66
2185.848	91.2
2189.841	89.3
2193.831	88.39
2197.817	88.57
2201.799	88.02
2205.778	87.48
2209.753	87.2
2213.725	86.39
2217.693	86.48
2221.657	86.3
2225.618	85.48
2229.575	85.2
2233.529	85.84
2237.479	85.75
2241.425	84.39
2245.368	83.93
2249.307	83.39
2253.243	82.48
2257.175	82.02
2261.104	80.39
2265.029	79.11
2268.95	79.11
2272.868	78.39
2276.783	77.48
2280.694	76.2
2284.601	75.75
2288.505	75.39
2292.405	74.3
2296.302	73.84
2300.195	73.2
2304.085	73.57
2307.971	76.93
2311.854	85.75
2315.734	96.75
2319.609	102.39
2323.482	102.66
2327.351	102.39
2331.216	100.84
2335.078	100.57
2338.937	99.39
2342.792	98.3
2346.643	95.84
2350.492	91.84
2354.336	79.93
2358.178	67.48
2362.015	60.02
2365.85	58.3
2369.681	57.3
2373.508	57.93
2377.333	57.11
2381.153	57.2
2384.971	57.3
2388.785	58.02
2392.595	56.84
2396.402	57.3
2400.206	57.02
2404.007	56.75
2407.804	55.2
2411.597	55.02
2415.388	54.02
2419.174	53.75
2422.958	52.75
2426.738	51.39
2430.515	50.39
2434.289	50.75
2438.059	50.66
2441.825	49.66
2445.589	48.84
2449.349	49.11
2453.106	47.75
2456.859	46.84
2460.61	45.93
2464.356	44.93
2468.1	44.02
2471.84	42.39
2475.577	40.66
2479.311	38.66
2483.041	38.75
2486.768	38.02
2490.492	36.66
2494.213	35.66
2497.93	36.02
2501.644	34.75
2505.355	34.48
2509.062	33.48
2512.766	32.75
2516.467	32.3
2520.165	31.75
2523.859	29.57
2527.551	27.93
2531.239	27.66
2534.923	27.11
2538.605	24.66
2542.283	24.02
2545.958	23.11
2549.63	22.84
2553.299	22.57
2556.964	21.57
2560.626	21.57
2564.285	21.2
2567.941	20.93
2571.594	20.39
2575.243	19.3
2578.89	18.93
2582.533	18.3
2586.173	17.57
2589.809	17.2
2593.443	16.2
2597.073	15.66
2600.701	15.3
2604.325	14.48
2607.946	13.93
2611.564	13.11
2615.178	12.48
2618.79	11.84
2622.398	10.57
2626.004	9.66
2629.606	8.57
2633.205	8.2
2636.801	7.02
2640.394	5.84
2643.983	5.39
2647.57	4.3
2651.153	3.2
2654.734	2.66
2658.311	1.84
2661.885	1.57
2665.456	0.75
2669.025	0.3
2672.589	-0.43
2676.151	-0.61
2679.71	-0.8
2683.266	-1.34
2686.819	-1.43
2690.368	-2.07
2693.915	-2.07
2697.458	-2.43
2700.999	-3.07
2704.536	-3.16
2708.071	-4.34
2711.602	-4.61
2715.13	-4.43
2718.656	-5.25
2722.178	-5.61
2725.697	-6.16
2729.214	-5.7
2732.727	-6.8
2736.237	-7.25
2739.744	-7.34
2743.249	-7.89
2746.75	-8.52
2750.248	-10.07
2753.743	-11.61
2757.236	-12.52
2760.725	-14.07
2764.211	-14.61
2767.695	-15.89
2771.175	-16.52
2774.652	-17.25
2778.127	-18.34
2781.598	-19.25
2785.067	-19.61
2788.532	-19.34
2791.995	-19.43
2795.455	-19.7
2798.911	-18.7
2802.365	-19.25
2805.816	-19.34
2809.264	-19.25
2812.709	-19.34
2816.151	-19.7
2819.59	-19.7
2823.026	-18.98
2826.46	-19.43
2829.89	-19.61
2833.318	-19.7
2836.742	-20.34
2840.164	-20.61
2843.583	-20.52
2846.999	-20.43
2850.412	-21.07
2853.822	-20.16
2857.229	-20.07
2860.634	-20.34
2864.035	-19.8
2867.434	-20.43
2870.83	-21.25
2874.223	-22.52
2877.613	-23.25
2881	-24.25
2884.385	-25.34
2887.766	-25.89
2891.145	-28.43
2894.521	-29.8
2897.894	-31.43
2901.264	-32.61
2904.631	-33.61
2907.996	-34.07
2911.358	-34.07
2914.717	-33.98
2918.073	-34.8
2921.426	-35.61
2924.777	-35.61
2928.124	-34.98
2931.469	-35.16
2934.811	-35.16
2938.15	-35.16
2941.487	-34.89
2944.821	-35.25
2948.152	-35.89
2951.48	-36.43
2954.805	-36.16
2958.128	-35.7
2961.447	-36.43
2964.765	-36.43
2968.079	-37.16
2971.39	-37.25
2974.699	-37.7
2978.005	-38.25
2981.308	-38.52
2984.609	-39.16
2987.907	-40.34
2991.202	-40.8
2994.494	-41.98
2997.784	-42.7
3001.07	-43.34
3004.355	-43.52
3007.636	-44.98
3010.915	-45.8
3014.191	-46.98
3017.464	-46.7
3020.734	-46.7
3024.002	-46.43
3027.267	-47.16
3030.53	-47.25
3033.789	-47.34
3037.046	-47.89
3040.301	-47.61
3043.552	-47.43
3046.801	-47.34
3050.048	-46.43
3053.291	-48.07
3056.532	-47.98
3059.771	-47.61
3063.006	-47.34
3066.239	-47.07
3069.469	-47.43
3072.697	-47.52
3075.922	-47.8
3079.144	-47.8
3082.364	-48.43
3085.581	-49.34
3088.795	-49.34
3092.007	-50.25
3095.216	-51.25
3098.423	-52.25
3101.627	-52.7
3104.828	-53.16
3108.026	-52.8
3111.222	-53.8
3114.416	-54.07
3117.607	-54.89
3120.795	-55.52
3123.98	-55.98
3127.163	-56.16
3130.344	-56.25
3133.521	-55.7
3136.696	-56.16
3139.869	-56.16
3143.039	-57.52
3146.206	-56.8
3149.371	-57.34
3152.533	-56.7
3155.693	-56.16
3158.85	-55.16
3162.005	-55.52
3165.157	-55.8
3168.306	-56.16
3171.453	-55.89
3174.597	-55.98
3177.739	-55.25
3180.878	-56.07
3184.014	-55.7
3187.149	-55.7
3190.28	-55.8
3193.409	-57.07
3196.536	-56.25
3199.659	-56.16
3202.781	-56.89
3205.9	-57.52
3209.016	-58.16
3212.13	-58.98
3215.241	-58.89
3218.35	-59.7
3221.456	-59.7
3224.56	-60.16
3227.661	-60.43
3230.76	-60.89
3233.856	-62.07
3236.95	-62.52
3240.041	-63.61
3243.13	-63.8
3246.216	-64.43
3249.3	-64.89
3252.382	-64.43
3255.46	-65.43
3258.537	-65.8
3261.611	-65.52
3264.682	-65.8
3267.751	-64.43
3270.818	-64.34
3273.882	-63.98
3276.943	-63.7
3280.002	-62.8
3283.059	-62.7
3286.113	-62.89
3289.165	-62.16
3292.214	-61.7
3295.261	-61.25
3298.306	-61.34
3301.348	-62.07
3304.387	-61.89
3307.425	-61.43
3310.459	-61.25
3313.492	-61.43
3316.521	-61.98
3319.549	-61.52
3322.574	-62.25
3325.597	-62.98
3328.617	-63.61
3331.635	-63.98
3334.65	-63.98
3337.663	-63.52
3340.674	-63.7
3343.682	-64.61
3346.688	-64.89
3349.691	-65.07
3352.692	-66.07
3355.691	-66.61
3358.687	-66.98
3361.681	-67.7
3364.673	-68.16
3367.662	-68.07
3370.649	-69.34
3373.633	-69.25
3376.615	-69.7
3379.595	-69.98
3382.572	-69.98
3385.547	-69.89
3388.52	-69.8
3391.49	-69.52
3394.458	-68.7
3397.424	-69.07
3400.387	-69.61
3403.348	-69.52
3406.307	-69.98
3409.263	-69.52
3412.217	-68.89
3415.168	-68.61
3418.118	-68.89
3421.065	-68.7
3424.009	-68.52
3426.951	-68.8
3429.891	-68.07
3432.829	-67.8
3435.764	-67.98
3438.697	-67.98
3441.628	-67.16
3444.557	-67.43
3447.483	-67.43
3450.407	-67.07
3453.328	-67.25
3456.247	-66.7
3459.164	-66.7
3462.079	-67.07
3464.991	-67.25
3467.902	-66.98
3470.809	-66.89
3473.715	-67.8
3476.618	-68.34
3479.519	-68.89
3482.418	-69.52
3485.315	-69.52
3488.209	-70.98
3491.101	-71.07
3493.99	-70.61
3496.878	-70.34
3499.763	-70.25
3502.646	-70.8
3505.527	-70.61
3508.405	-71.07
3511.281	-70.52
3514.155	-70.61
3517.027	-70.7
3519.897	-69.8
3522.764	-69.89
3525.629	-70.07
3528.492	-69.89
3531.352	-69.16
3534.211	-68.43
3537.067	-68.25
3539.921	-67.89
3542.773	-68.52
3545.622	-68.34
3548.469	-67.7
3551.315	-68.25
3554.157	-68.43
3556.998	-68.34
3559.837	-68.89
3562.673	-68.98
3565.507	-69.34
3568.339	-69.34
3571.169	-69.52
3573.996	-69.43
3576.822	-69.43
3579.645	-69.8
3582.466	-68.98
3585.285	-68.89
3588.101	-69.34
3590.916	-69.89
3593.728	-70.07
3596.538	-70.43
3599.346	-70.98
3602.152	-71.07
3604.956	-71.98
3607.757	-72.07
3610.556	-72.43
3613.354	-73.07
3616.149	-73.34
3618.942	-73.34
3621.732	-73.07
3624.521	-73.89
3627.307	-73.98
3630.092	-73.89
3632.874	-74.25
3635.654	-73.43
3638.432	-72.89
3641.208	-72.7
3643.982	-73.16
3646.753	-72.61
3649.523	-72.98
3652.29	-72.8
3655.055	-73.07
3657.818	-72.7
3660.579	-72.43
3663.338	-71.89
3666.095	-72.52
3668.849	-73.16
3671.602	-73.52
3674.352	-73.52
3677.101	-73.89
3679.847	-73.52
3682.591	-74.16
3685.333	-73.34
3688.073	-73.43
3690.811	-73.61
3693.547	-73.8
3696.281	-73.25
3699.013	-73.61
3701.742	-73.34
3704.47	-73.89
3707.195	-74.7
3709.919	-75.34
3712.64	-75.07
3715.359	-75.25
3718.076	-76.25
3720.792	-76.98
3723.505	-77.61
3726.216	-77.8
3728.925	-77.8
3731.632	-78.52
3734.336	-77.61
3737.039	-77.43
3739.74	-76.52
3742.439	-76.52
3745.136	-77.25
3747.83	-76.34
3750.523	-76.07
3753.213	-75.52
3755.902	-75.43
3758.589	-74.8
3761.273	-74.34
3763.956	-74.7
3766.636	-74.07
3769.315	-73.98
3771.991	-74.98
3774.665	-76.61
3777.338	-76.8
3780.008	-76.98
3782.677	-76.52
3785.343	-76.7
3788.007	-76.98
3790.67	-77.25
3793.33	-76.89
3795.989	-77.16
3798.645	-77.16
3801.299	-76.43
3803.952	-74.25
3806.602	-74.25
3809.251	-74.07
3811.897	-74.98
3814.542	-75.52
3817.184	-75.61
3819.825	-76.25
3822.463	-76.7
3825.1	-77.43
3827.735	-78.52
3830.367	-78.52
3832.998	-78.8
3835.627	-79.34
3838.253	-78.98
3840.878	-78.61
3843.501	-77.52
3846.122	-77.43
3848.741	-76.43
3851.358	-76.52
3853.973	-75.07
3856.586	-72.7
3859.197	-70.43
3861.806	-66.8
3864.414	-59.98
3867.019	-48.98
3869.622	-33.98
3872.224	-17.8
3874.823	-5.07
3877.421	2.93
3880.016	7.11
3882.61	8.3
3885.202	7.75
3887.792	6.39
3890.38	3.2
3892.966	-2.61
3895.55	-13.52
3898.132	-27.98
3900.713	-44.34
3903.291	-57.52
3905.868	-65.8
3908.442	-69.98
3911.015	-71.61
3913.586	-72.98
3916.155	-73.7
3918.722	-74.16
3921.287	-74.43
3923.85	-75.07
3926.411	-75.8
3928.971	-76.61
3931.528	-76.34
3934.084	-76.16
3936.638	-75.89
3939.19	-76.25
3941.74	-76.16
3944.288	-76.07
3946.834	-74.8
3949.378	-74.34
3951.921	-73.8
3954.462	-72.89
3957	-72.07
3959.537	-71.89
3962.072	-71.43
3964.606	-71.7
3967.137	-71.07
3969.667	-70.43
3972.194	-70.25
3974.72	-71.25
3977.244	-71.8
3979.766	-71.61
3982.286	-71.98
3984.805	-72.43
3987.321	-73.07
3989.836	-73.52
3992.349	-73.25
3994.86	-73.52
3997.369	-74.16
3999.877	-74.43
4002.382	-75.07
4004.886	-75.25
4007.388	-75.7
4009.888	-76.34
4012.386	-76.16
4014.883	-75.89
4017.377	-76.34
4019.87	-76.43
4022.361	-76.43
4024.85	-76.25
4027.338	-75.89
4029.823	-75.34
4032.307	-75.07
4034.789	-74.61
4037.269	-73.52
4039.747	-73.43
4042.224	-72.89
4044.699	-72.25
4047.172	-71.98
4049.643	-72.16
4052.112	-71.8
4054.58	-71.98
4057.046	-72.16
4059.51	-71.61
4061.972	-71.98
4064.432	-72.89
4066.891	-73.07
4069.348	-73.52
4071.803	-73.7
4074.256	-73.98
4076.708	-74.16
4079.158	-74.98
4081.606	-75.43
4084.052	-75.61
4086.497	-76.16
4088.939	-76.25
4091.38	-76.25
4093.819	-63.61
4096.257	-51.7
4098.693	-40.16
4101.127	-28.89
4103.559	-17.8
4105.989	-7.25
4108.418	-7.16
4110.845	-7.89
4113.27	-8.7
4115.694	-8.8
4118.115	-8.61
4120.535	-20.89
4122.954	-33.07
4125.37	-44.89
4127.785	-56.52
4130.198	-67.89
4132.609	-78.55
4135.019	-78.69
4137.427	-77.75
4139.833	-77.11
4142.237	-77.08