File: Data/Raman/2017-08-24 - Glass, alluminum 108/Aluminum/alucontrol - 30s - I=1, bc=5_RamanShift_2.txt
Data from alucontrol - 30s - I=1, bc=5_RamanShift_2.txt Node

Date: Thu Aug 24 12:09:43 IDT 2017
User: aro
Spectrometer: QEPB0276
Trigger mode: 0
Integration Time (sec): 3.000000E1
Scans to average: 1
Electric dark correction enabled: true
Nonlinearity correction enabled: false
Boxcar width: 5
XAxis mode: Raman Shifts
Number of Pixels in Spectrum: 1044
>>>>>Begin Spectral Data<<<<<
160.701	183.54
166.742	283.38
172.777	386.12
178.805	475.38
184.826	548.88
190.841	610.83
196.849	721.01
202.85	835.92
208.845	950.28
214.833	1061.38
220.815	1161.01
226.789	1236.38
232.758	1285.38
238.719	1315.01
244.674	1339.28
250.623	1363.74
256.565	1389.83
262.5	1416.56
268.429	1440.65
274.351	1467.1
280.267	1491.56
286.176	1514.65
292.079	1539.19
297.975	1560.65
303.865	1583.83
309.748	1605.65
315.625	1627.28
321.495	1645.56
327.359	1664.1
333.217	1682.47
339.068	1700.65
344.912	1726.19
350.751	1762.83
356.583	1801.92
362.408	1836.83
368.227	1859.83
374.04	1883.19
379.847	1919.1
385.647	1988.65
391.44	2095.38
397.228	2201.01
403.009	2262.38
408.784	2278.74
414.553	2272.65
420.315	2256.1
426.071	2239.56
431.821	2231.01
437.565	2216.74
443.302	2184.1
449.033	2115.74
454.758	2006.83
460.477	1894.74
466.189	1821.83
471.896	1778.1
477.596	1732.56
483.29	1677.74
488.978	1613.28
494.66	1538.74
500.335	1463.74
506.005	1385.38
511.668	1306.74
517.325	1225.1
522.977	1143.38
528.622	1061.65
534.261	986.92
539.894	922.65
545.521	872.1
551.141	836.38
556.756	811.56
562.365	790.92
567.968	777.38
573.565	767.38
579.155	760.38
584.74	755.19
590.319	749.65
595.892	743.65
601.459	738.19
607.02	737.01
612.575	742.56
618.124	761.38
623.667	784.65
629.204	799.1
634.735	796.19
640.261	788.01
645.781	776.92
651.294	764.74
656.802	755.28
662.304	744.92
667.8	732.19
673.29	709.92
678.775	674.28
684.254	634.38
689.726	603.19
695.193	587.65
700.655	579.74
706.11	575.01
711.56	574.47
717.004	575.01
722.442	581.1
727.874	587.56
733.301	595.1
738.722	599.56
744.137	604.28
749.547	609.56
754.951	617.38
760.349	625.83
765.741	635.38
771.128	644.1
776.509	649.38
781.885	651.28
787.254	649.1
792.618	648.38
797.977	649.56
803.33	649.65
808.677	648.28
814.019	643.19
819.355	634.74
824.686	623.92
830.011	610.92
835.33	596.74
840.644	581.01
845.952	567.19
851.255	551.28
856.552	537.56
861.844	522.92
867.13	509.47
872.41	496.74
877.686	485.1
882.955	474.92
888.219	466.01
893.478	459.1
898.731	454.65
903.979	450.01
909.221	446.74
914.458	443.01
919.69	440.92
924.916	438.28
930.136	437.19
935.351	436.83
940.561	434.74
945.766	432.47
950.965	429.56
956.158	426.38
961.347	423.38
966.529	421.1
971.707	418.19
976.879	415.65
982.046	414.47
987.208	413.19
992.364	412.01
997.515	412.74
1002.66	414.65
1007.801	418.19
1012.936	422.01
1018.066	425.65
1023.19	429.56
1028.309	433.83
1033.423	438.92
1038.532	442.65
1043.636	446.1
1048.734	448.47
1053.827	449.01
1058.915	449.1
1063.998	448.19
1069.075	445.56
1074.147	443.92
1079.214	440.56
1084.276	437.1
1089.333	431.28
1094.385	425.74
1099.431	418.83
1104.472	412.56
1109.509	406.74
1114.54	401.83
1119.565	396.28
1124.586	392.65
1129.602	388.74
1134.613	386.65
1139.618	384.92
1144.619	385.01
1149.614	384.47
1154.604	385.74
1159.589	387.01
1164.57	387.74
1169.545	387.74
1174.515	389.38
1179.48	389.92
1184.44	389.74
1189.395	388.56
1194.345	388.01
1199.29	388.74
1204.23	389.47
1209.165	390.38
1214.095	390.01
1219.021	390.92
1223.941	390.1
1228.856	388.38
1233.766	386.38
1238.672	383.92
1243.572	380.56
1248.467	376.65
1253.358	370.28
1258.244	365.47
1263.124	359.83
1268	355.19
1272.871	350.1
1277.737	348.47
1282.599	346.28
1287.455	345.65
1292.306	345.1
1297.153	344.92
1301.995	345.19
1306.832	345.56
1311.664	345.65
1316.491	345.19
1321.314	345.92
1326.132	346.28
1330.945	343.65
1335.753	342.19
1340.556	338.74
1345.354	336.74
1350.148	335.92
1354.937	333.83
1359.722	331.92
1364.501	330.38
1369.276	328.65
1374.046	324.19
1378.811	321.74
1383.572	318.56
1388.327	314.74
1393.079	312.74
1397.825	309.38
1402.567	305.56
1407.304	302.19
1412.036	301.01
1416.764	298.74
1421.487	297.65
1426.205	298.47
1430.919	299.01
1435.628	300.83
1440.333	302.1
1445.032	302.56
1449.727	303.47
1454.418	305.38
1459.104	305.83
1463.785	306.01
1468.462	307.19
1473.134	306.92
1477.802	307.65
1482.465	306.92
1487.123	307.74
1491.777	308.83
1496.426	310.47
1501.071	311.92
1505.711	311.65
1510.347	312.47
1514.978	311.83
1519.604	310.38
1524.226	309.47
1528.844	308.56
1533.457	312.1
1538.065	317.19
1542.669	318.19
1547.269	315.1
1551.864	310.74
1556.454	307.56
1561.041	305.1
1565.622	303.01
1570.199	301.19
1574.772	299.1
1579.34	295.65
1583.904	287.56
1588.464	277.19
1593.019	270.28
1597.569	267.28
1602.115	265.47
1606.657	264.38
1611.195	262.74
1615.728	260.1
1620.256	257.92
1624.78	256.56
1629.3	255.01
1633.816	255.28
1638.327	255.19
1642.834	254.83
1647.336	255.19
1651.834	256.56
1656.328	256.47
1660.817	256.65
1665.302	257.83
1669.783	258.92
1674.259	259.38
1678.732	260.01
1683.199	260.01
1687.663	258.74
1692.122	259.65
1696.577	258.56
1701.028	256.65
1705.474	253.74
1709.917	250.83
1714.355	247.47
1718.788	243.19
1723.218	238.83
1727.643	234.28
1732.064	228.92
1736.481	224.47
1740.893	219.56
1745.301	215.01
1749.705	209.83
1754.105	206.92
1758.501	204.74
1762.893	202.56
1767.28	200.65
1771.663	199.65
1776.042	198.92
1780.417	198.28
1784.787	197.56
1789.154	196.47
1793.516	196.38
1797.874	195.74
1802.228	193.56
1806.578	191.28
1810.924	189.19
1815.266	186.56
1819.603	183.28
1823.937	179.83
1828.266	177.1
1832.591	174.47
1836.913	172.28
1841.23	170.38
1845.543	169.65
1849.852	169.92
1854.156	169.28
1858.457	169.38
1862.754	169.83
1867.047	170.92
1871.335	172.19
1875.62	172.74
1879.9	172.92
1884.177	173.19
1888.449	173.01
1892.718	173.83
1896.982	173.38
1901.243	173.19
1905.499	173.01
1909.752	173.47
1914	173.74
1918.245	173.47
1922.485	173.47
1926.722	174.1
1930.954	174.28
1935.183	173.01
1939.408	170.74
1943.628	168.65
1947.845	166.83
1952.058	164.01
1956.267	160.65
1960.472	156.83
1964.673	153.65
1968.87	150.19
1973.063	147.65
1977.252	143.92
1981.438	141.56
1985.619	138.92
1989.797	136.92
1993.971	134.38
1998.14	132.92
2002.306	132.47
2006.469	131.38
2010.627	130.28
2014.781	128.92
2018.932	126.38
2023.078	125.37
2027.221	124.28
2031.36	123.56
2035.495	122.83
2039.627	122.56
2043.754	122.19
2047.878	120.56
2051.998	120.83
2056.114	120.38
2060.226	121.47
2064.334	121.92
2068.439	122.47
2072.54	123.01
2076.637	123.65
2080.73	123.92
2084.82	123.74
2088.906	122.56
2092.988	121.92
2097.066	120.92
2101.14	120.28
2105.211	117.74
2109.278	116.1
2113.342	114.1
2117.401	112.1
2121.457	109.38
2125.509	106.92
2129.558	104.83
2133.602	102.83
2137.643	101.19
2141.681	99.01
2145.714	96.47
2149.744	95.28
2153.77	94.01
2157.793	92.74
2161.812	90.92
2165.827	89.65
2169.838	88.28
2173.846	86.65
2177.851	85.74
2181.851	84.83
2185.848	83.56
2189.841	82.74
2193.831	81.74
2197.817	80.65
2201.799	79.47
2205.778	79.47
2209.753	78.56
2213.725	77.56
2217.693	78.19
2221.657	78.01
2225.618	77.56
2229.575	76.38
2233.529	76.47
2237.479	76.19
2241.425	75.47
2245.368	73.74
2249.307	72.38
2253.243	71.92
2257.175	70.56
2261.104	68.47
2265.029	67.19
2268.95	65.65
2272.868	64.83
2276.783	63.83
2280.694	62.47
2284.601	61.56
2288.505	61.19
2292.405	59.65
2296.302	58.74
2300.195	59.47
2304.085	60.56
2307.971	64.1
2311.854	74.47
2315.734	87.1
2319.609	92.47
2323.482	93.19
2327.351	92.01
2331.216	91.28
2335.078	90.47
2338.937	89.56
2342.792	88.38
2346.643	85.92
2350.492	80.28
2354.336	68.01
2358.178	53.65
2362.015	45.65
2365.85	43.65
2369.681	43.47
2373.508	42.92
2377.333	42.28
2381.153	41.65
2384.971	40.1
2388.785	39.56
2392.595	38.74
2396.402	38.38
2400.206	38.47
2404.007	38.19
2407.804	36.65
2411.597	35.38
2415.388	34.65
2419.174	33.74
2422.958	32.65
2426.738	32.38
2430.515	31.28
2434.289	30.83
2438.059	29.74
2441.825	28.47
2445.589	28.1
2449.349	27.65
2453.106	27.28
2456.859	26.47
2460.61	26.01
2464.356	25.83
2468.1	25.1
2471.84	25.28
2475.577	25.19
2479.311	25.28
2483.041	24.83
2486.768	23.83
2490.492	23.56
2494.213	22.83
2497.93	22.19
2501.644	22.28
2505.355	22.28
2509.062	22.01
2512.766	20.83
2516.467	20.56
2520.165	20.28
2523.859	19.83
2527.551	19.38
2531.239	19.74
2534.923	20.1
2538.605	20.19
2542.283	19.56
2545.958	18.56
2549.63	18.56
2553.299	17.92
2556.964	17.65
2560.626	17.56
2564.285	17.65
2567.941	16.92
2571.594	15.28
2575.243	14.74
2578.89	14.47
2582.533	13.65
2586.173	12.74
2589.809	12.19
2593.443	12.38
2597.073	11.47
2600.701	9.56
2604.325	7.83
2607.946	7.74
2611.564	7.56
2615.178	5.65
2618.79	4.65
2622.398	4.1
2626.004	3.92
2629.606	3.01
2633.205	1.83
2636.801	1.47
2640.394	1.19
2643.983	1.56
2647.57	0.83
2651.153	0.19
2654.734	0.28
2658.311	0.01
2661.885	-0.44
2665.456	-1.17
2669.025	-1.62
2672.589	-1.9
2676.151	-2.53
2679.71	-2.9
2683.266	-3.62
2686.819	-3.81
2690.368	-5.08
2693.915	-5.35
2697.458	-5.53
2700.999	-5.9
2704.536	-5.99
2708.071	-5.99
2711.602	-5.81
2715.13	-5.99
2718.656	-5.62
2722.178	-5.17
2725.697	-5.17
2729.214	-4.08
2732.727	-3.81
2736.237	-4.17
2739.744	-3.81
2743.249	-3.53
2746.75	-4.72
2750.248	-5.35
2753.743	-5.81
2757.236	-6.26
2760.725	-7.72
2764.211	-8.35
2767.695	-8.99
2771.175	-9.35
2774.652	-9.9
2778.127	-10.9
2781.598	-11.44
2785.067	-11.62
2788.532	-12.08
2791.995	-12.81
2795.455	-13.44
2798.911	-13.26
2802.365	-13.62
2805.816	-14.62
2809.264	-15.44
2812.709	-16.35
2816.151	-16.62
2819.59	-16.81
2823.026	-16.26
2826.46	-16.81
2829.89	-16.9
2833.318	-17.53
2836.742	-17.81
2840.164	-17.99
2843.583	-17.53
2846.999	-17.9
2850.412	-17.9
2853.822	-18.08
2857.229	-18.81
2860.634	-19.44
2864.035	-19.26
2867.434	-19.53
2870.83	-19.35
2874.223	-19.81
2877.613	-20.72
2881	-21.72
2884.385	-22.17
2887.766	-23.72
2891.145	-23.9
2894.521	-24.9
2897.894	-25.62
2901.264	-27.08
2904.631	-27.81
2907.996	-28.26
2911.358	-28.26
2914.717	-28.35
2918.073	-28.53
2921.426	-28.99
2924.777	-27.99
2928.124	-28.9
2931.469	-28.9
2934.811	-29.72
2938.15	-29.08
2941.487	-29.35
2944.821	-30.35
2948.152	-31.26
2951.48	-31.72
2954.805	-31.35
2958.128	-31.72
2961.447	-31.99
2964.765	-32.72
2968.079	-32.99
2971.39	-33.26
2974.699	-33.53
2978.005	-33.44
2981.308	-33.08
2984.609	-32.9
2987.907	-33.08
2991.202	-33.99
2994.494	-33.9
2997.784	-34.53
3001.07	-34.17
3004.355	-34.9
3007.636	-35.08
3010.915	-35.99
3014.191	-36.72
3017.464	-37.35
3020.734	-37.99
3024.002	-38.44
3027.267	-39.08
3030.53	-39.72
3033.789	-40.62
3037.046	-40.81
3040.301	-40.53
3043.552	-40.81
3046.801	-41.17
3050.048	-41.81
3053.291	-42.08
3056.532	-42.62
3059.771	-42.72
3063.006	-43.35
3066.239	-43.99
3069.469	-43.72
3072.697	-43.81
3075.922	-44.44
3079.144	-44.9
3082.364	-44.72
3085.581	-44.44
3088.795	-44.44
3092.007	-44.44
3095.216	-44.81
3098.423	-44.81
3101.627	-44.72
3104.828	-44.9
3108.026	-45.08
3111.222	-45.17
3114.416	-45.35
3117.607	-45.72
3120.795	-46.26
3123.98	-46.81
3127.163	-47.08
3130.344	-47.99
3133.521	-47.99
3136.696	-48.35
3139.869	-48.72
3143.039	-49.72
3146.206	-50.17
3149.371	-50.35
3152.533	-50.62
3155.693	-50.9
3158.85	-51.26
3162.005	-52.26
3165.157	-51.9
3168.306	-52.72
3171.453	-52.35
3174.597	-52.53
3177.739	-52.35
3180.878	-52.26
3184.014	-51.62
3187.149	-52.53
3190.28	-52.08
3193.409	-52.17
3196.536	-51.26
3199.659	-51.44
3202.781	-51.35
3205.9	-51.81
3209.016	-51.62
3212.13	-52.17
3215.241	-51.44
3218.35	-52.26
3221.456	-51.72
3224.56	-52.26
3227.661	-51.99
3230.76	-52.62
3233.856	-52.72
3236.95	-52.53
3240.041	-52.9
3243.13	-52.35
3246.216	-52.53
3249.3	-53.17
3252.382	-52.9
3255.46	-52.53
3258.537	-53.26
3261.611	-53.08
3264.682	-52.81
3267.751	-53.08
3270.818	-53.17
3273.882	-52.9
3276.943	-54.35
3280.002	-53.72
3283.059	-53.72
3286.113	-54.17
3289.165	-54.9
3292.214	-54.62
3295.261	-54.99
3298.306	-55.44
3301.348	-55.53
3304.387	-55.81
3307.425	-55.81
3310.459	-55.62
3313.492	-56.08
3316.521	-56.72
3319.549	-57.08
3322.574	-56.9
3325.597	-57.08
3328.617	-57.72
3331.635	-57.81
3334.65	-57.62
3337.663	-57.81
3340.674	-58.26
3343.682	-57.9
3346.688	-57.81
3349.691	-57.9
3352.692	-58.17
3355.691	-58.08
3358.687	-57.9
3361.681	-57.81
3364.673	-58.35
3367.662	-58.81
3370.649	-58.81
3373.633	-59.9
3376.615	-60.44
3379.595	-61.08
3382.572	-61.53
3385.547	-60.99
3388.52	-61.53
3391.49	-62.53
3394.458	-63.17
3397.424	-63.08
3400.387	-63.35
3403.348	-63.81
3406.307	-62.99
3409.263	-62.9
3412.217	-62.62
3415.168	-62.9
3418.118	-62.72
3421.065	-63.17
3424.009	-63.08
3426.951	-63.08
3429.891	-63.44
3432.829	-63.99
3435.764	-63.35
3438.697	-63.62
3441.628	-64.17
3444.557	-64.44
3447.483	-63.72
3450.407	-64.08
3453.328	-63.99
3456.247	-63.62
3459.164	-63.53
3462.079	-62.99
3464.991	-62.35
3467.902	-62.81
3470.809	-62.35
3473.715	-61.99
3476.618	-61.44
3479.519	-61.08
3482.418	-60.99
3485.315	-60.62
3488.209	-59.99
3491.101	-59.44
3493.99	-59.72
3496.878	-59.72
3499.763	-59.9
3502.646	-60.35
3505.527	-59.35
3508.405	-59.53
3511.281	-59.81
3514.155	-60.08
3517.027	-59.81
3519.897	-59.99
3522.764	-60.35
3525.629	-59.62
3528.492	-59.35
3531.352	-58.62
3534.211	-58.08
3537.067	-58.99
3539.921	-59.26
3542.773	-60.08
3545.622	-60.08
3548.469	-60.44
3551.315	-60.62
3554.157	-60.35
3556.998	-60.35
3559.837	-60.26
3562.673	-60.26
3565.507	-60.9
3568.339	-60.9
3571.169	-60.44
3573.996	-59.72
3576.822	-59.99
3579.645	-60.44
3582.466	-60.53
3585.285	-60.9
3588.101	-61.44
3590.916	-61.81
3593.728	-61.9
3596.538	-61.9
3599.346	-61.99
3602.152	-61.81
3604.956	-62.44
3607.757	-62.53
3610.556	-62.08
3613.354	-61.72
3616.149	-61.72
3618.942	-61.62
3621.732	-61.9
3624.521	-62.53
3627.307	-62.53
3630.092	-62.9
3632.874	-63.9
3635.654	-63.72
3638.432	-63.72
3641.208	-64.35
3643.982	-65.44
3646.753	-65.53
3649.523	-66.17
3652.29	-65.81
3655.055	-65.9
3657.818	-66.08
3660.579	-66.44
3663.338	-66.44
3666.095	-67.08
3668.849	-67.26
3671.602	-66.9
3674.352	-66.81
3677.101	-67.26
3679.847	-67.62
3682.591	-68.81
3685.333	-68.81
3688.073	-68.62
3690.811	-68.26
3693.547	-67.9
3696.281	-67.53
3699.013	-67.35
3701.742	-67.9
3704.47	-67.62
3707.195	-66.9
3709.919	-66.53
3712.64	-65.44
3715.359	-65.81
3718.076	-65.53
3720.792	-65.44
3723.505	-66.17
3726.216	-65.44
3728.925	-65.53
3731.632	-65.53
3734.336	-65.35
3737.039	-66.08
3739.74	-66.72
3742.439	-66.99
3745.136	-66.35
3747.83	-66.62
3750.523	-66.62
3753.213	-66.44
3755.902	-67.08
3758.589	-67.26
3761.273	-67.17
3763.956	-67.53
3766.636	-67.17
3769.315	-66.44
3771.991	-66.81
3774.665	-67.17
3777.338	-67.44
3780.008	-67.17
3782.677	-66.99
3785.343	-66.72
3788.007	-66.62
3790.67	-66.72
3793.33	-67.26
3795.989	-66.81
3798.645	-67.26
3801.299	-67.35
3803.952	-67.53
3806.602	-67.9
3809.251	-67.9
3811.897	-68.53
3814.542	-68.9
3817.184	-68.99
3819.825	-69.17
3822.463	-68.44
3825.1	-69.08
3827.735	-68.53
3830.367	-68.53
3832.998	-68.72
3835.627	-68.53
3838.253	-68.81
3840.878	-68.17
3843.501	-68.08
3846.122	-67.9
3848.741	-66.81
3851.358	-66.26
3853.973	-65.99
3856.586	-65.35
3859.197	-63.26
3861.806	-60.17
3864.414	-53.99
3867.019	-46.81
3869.622	-36.26
3872.224	-25.44
3874.823	-16.62
3877.421	-11.99
3880.016	-9.62
3882.61	-8.62
3885.202	-8.26
3887.792	-9.9
3890.38	-12.53
3892.966	-18.44
3895.55	-25.44
3898.132	-36.53
3900.713	-47.35
3903.291	-55.9
3905.868	-61.17
3908.442	-64.35
3911.015	-65.99
3913.586	-66.81
3916.155	-67.08
3918.722	-67.08
3921.287	-67.17
3923.85	-67.44
3926.411	-67.35
3928.971	-67.9
3931.528	-68.08
3934.084	-67.99
3936.638	-68.08
3939.19	-67.53
3941.74	-68.44
3944.288	-68.08
3946.834	-67.53
3949.378	-66.62
3951.921	-66.44
3954.462	-65.53
3957	-65.08
3959.537	-65.53
3962.072	-65.72
3964.606	-65.99
3967.137	-65.72
3969.667	-65.08
3972.194	-65.35
3974.72	-66.17
3977.244	-66.9
3979.766	-67.53
3982.286	-68.08
3984.805	-68.44
3987.321	-68.35
3989.836	-68.62
3992.349	-68.08
3994.86	-68.62
3997.369	-68.08
3999.877	-67.35
4002.382	-67.35
4004.886	-67.81
4007.388	-67.62
4009.888	-68.26
4012.386	-68.26
4014.883	-68.17
4017.377	-67.44
4019.87	-67.35
4022.361	-66.9
4024.85	-67.99
4027.338	-68.72
4029.823	-68.35
4032.307	-67.53
4034.789	-67.62
4037.269	-67.08
4039.747	-66.62
4042.224	-66.17
4044.699	-66.44
4047.172	-66.35
4049.643	-66.62
4052.112	-65.9
4054.58	-65.62
4057.046	-65.62
4059.51	-66.08
4061.972	-65.35
4064.432	-64.81
4066.891	-64.62
4069.348	-64.81
4071.803	-64.81
4074.256	-64.53
4076.708	-64.17
4079.158	-63.99
4081.606	-64.17
4084.052	-64.62
4086.497	-64.9
4088.939	-65.9
4091.38	-66.44
4093.819	-54.9
4096.257	-43.53
4098.693	-33.17
4101.127	-23.17
4103.559	-13.81
4105.989	-4.35
4108.418	-3.81
4110.845	-2.81
4113.27	-2.53
4115.694	-1.44
4118.115	-0.9
4120.535	-12.53
4122.954	-23.9
4125.37	-34.44
4127.785	-45.08
4130.198	-54.53
4132.609	-64.03
4135.019	-64.4
4137.427	-65
4139.833	-64.77
4142.237	-65.46