File: Data/Raman/2017-08-24 - Glass, alluminum 108/Aluminum/alucontrol - 30s - I=1, bc=5_RamanShift_1.txt
Data from alucontrol - 30s - I=1, bc=5_RamanShift_1.txt Node

Date: Thu Aug 24 12:08:43 IDT 2017
User: aro
Spectrometer: QEPB0276
Trigger mode: 0
Integration Time (sec): 3.000000E1
Scans to average: 1
Electric dark correction enabled: true
Nonlinearity correction enabled: false
Boxcar width: 5
XAxis mode: Raman Shifts
Number of Pixels in Spectrum: 1044
>>>>>Begin Spectral Data<<<<<
160.701	183.29
166.742	283.84
172.777	386.25
178.805	476.46
184.826	550.52
190.841	611.67
196.849	722.58
202.85	837.12
208.845	953.22
214.833	1064.85
220.815	1164.67
226.789	1242.12
232.758	1290.76
238.719	1321.94
244.674	1347.12
250.623	1373.49
256.565	1401.49
262.5	1428.22
268.429	1453.31
274.351	1478.67
280.267	1503.94
286.176	1527.49
292.079	1552.49
297.975	1575.94
303.865	1597.67
309.748	1618.49
315.625	1639.03
321.495	1656.67
327.359	1675.94
333.217	1693.58
339.068	1710.85
344.912	1738.12
350.751	1774.22
356.583	1811.76
362.408	1842.76
368.227	1866.12
374.04	1888.76
379.847	1922.76
385.647	1990.49
391.44	2094.03
397.228	2199.31
403.009	2262.31
408.784	2278.22
414.553	2273.22
420.315	2257.58
426.071	2243.67
431.821	2235.58
437.565	2221.58
443.302	2189.94
449.033	2122.85
454.758	2016.49
460.477	1906.94
466.189	1833.85
471.896	1787.03
477.596	1741.49
483.29	1685.76
488.978	1620.22
494.66	1546.76
500.335	1471.4
506.005	1394.22
511.668	1315.22
517.325	1232.85
522.977	1150.22
528.622	1067.49
534.261	993.76
539.894	927.94
545.521	878.31
551.141	844.03
556.756	818.85
562.365	798.67
567.968	784.03
573.565	774.49
579.155	767.49
584.74	761.49
590.319	756.12
595.892	748.67
601.459	744.58
607.02	741.58
612.575	745.22
618.124	761.67
623.667	786.03
629.204	800.49
634.735	799.12
640.261	790.03
645.781	777.67
651.294	766.31
656.802	757.22
662.304	746.31
667.8	733.22
673.29	711.03
678.775	677.4
684.254	636.94
689.726	605.4
695.193	588.4
700.655	581.12
706.11	577.85
711.56	576.4
717.004	577.67
722.442	582.67
727.874	591.22
733.301	599.31
738.722	602.58
744.137	606.03
749.547	611.49
754.951	620.58
760.349	629.94
765.741	639.31
771.128	648.94
776.509	656.12
781.885	658.49
787.254	656.67
792.618	656.22
797.977	658.67
803.33	661.03
808.677	659.94
814.019	654.58
819.355	645.03
824.686	633.67
830.011	620.49
835.33	605.31
840.644	589.85
845.952	575.03
851.255	558.85
856.552	542.85
861.844	526.94
867.13	513.49
872.41	500.03
877.686	489.12
882.955	478.76
888.219	468.85
893.478	461.22
898.731	455.31
903.979	450.4
909.221	446.76
914.458	443.22
919.69	441.49
924.916	439.67
930.136	438.4
935.351	436.03
940.561	434.22
945.766	432.4
950.965	429.67
956.158	427.4
961.347	425.03
966.529	422.94
971.707	420.76
976.879	417.58
982.046	416.03
987.208	415.12
992.364	415.76
997.515	416.58
1002.66	418.49
1007.801	421.58
1012.936	424.22
1018.066	426.31
1023.19	430.22
1028.309	434.4
1033.423	438.49
1038.532	440.76
1043.636	442.67
1048.734	443.49
1053.827	443.94
1058.915	444.76
1063.998	443.12
1069.075	441.58
1074.147	441.12
1079.214	437.67
1084.276	433.94
1089.333	429.22
1094.385	423.94
1099.431	418.67
1104.472	413.58
1109.509	407.85
1114.54	400.85
1119.565	396.67
1124.586	393.76
1129.602	390.49
1134.613	388.4
1139.618	387.22
1144.619	387.58
1149.614	387.76
1154.604	389.49
1159.589	391.03
1164.57	392.4
1169.545	393.76
1174.515	395.49
1179.48	395.58
1184.44	395.49
1189.395	396.03
1194.345	395.85
1199.29	395.76
1204.23	396.67
1209.165	395.67
1214.095	396.4
1219.021	396.76
1223.941	395.85
1228.856	394.76
1233.766	393.22
1238.672	390.31
1243.572	386.03
1248.467	381.49
1253.358	375.67
1258.244	369.12
1263.124	365.03
1268	359.22
1272.871	355.22
1277.737	351.94
1282.599	348.31
1287.455	346.4
1292.306	346.12
1297.153	347.4
1301.995	348.03
1306.832	349.31
1311.664	349.85
1316.491	348.49
1321.314	348.49
1326.132	347.22
1330.945	346.4
1335.753	345.58
1340.556	343.76
1345.354	341.31
1350.148	338.58
1354.937	336.4
1359.722	333.76
1364.501	332.58
1369.276	330.49
1374.046	326.85
1378.811	324.49
1383.572	320.31
1388.327	316.12
1393.079	312.85
1397.825	309.85
1402.567	305.4
1407.304	302.76
1412.036	301.4
1416.764	299.85
1421.487	299.22
1426.205	298.94
1430.919	299.4
1435.628	302.12
1440.333	304.03
1445.032	304.94
1449.727	306.22
1454.418	307.67
1459.104	308.85
1463.785	308.85
1468.462	308.4
1473.134	307.67
1477.802	308.12
1482.465	307.85
1487.123	308.67
1491.777	309.12
1496.426	310.49
1501.071	311.4
1505.711	313.49
1510.347	313.4
1514.978	313.03
1519.604	313.12
1524.226	313.58
1528.844	314.31
1533.457	317.49
1538.065	321.31
1542.669	322.85
1547.269	320.22
1551.864	315.67
1556.454	312.12
1561.041	309.12
1565.622	307.12
1570.199	305.12
1574.772	302.22
1579.34	298.4
1583.904	290.76
1588.464	281.31
1593.019	274.22
1597.569	271.67
1602.115	270.76
1606.657	269.31
1611.195	267.31
1615.728	265.58
1620.256	263.4
1624.78	261.67
1629.3	260.4
1633.816	260.76
1638.327	261.22
1642.834	261.67
1647.336	260.94
1651.834	261.31
1656.328	261.31
1660.817	262.03
1665.302	262.31
1669.783	262.4
1674.259	264.22
1678.732	264.03
1683.199	263.31
1687.663	262.67
1692.122	261.49
1696.577	260.67
1701.028	258.58
1705.474	254.76
1709.917	251.4
1714.355	247.31
1718.788	243.4
1723.218	238.4
1727.643	233.49
1732.064	229.22
1736.481	224.31
1740.893	220.12
1745.301	215.22
1749.705	210.76
1754.105	208.49
1758.501	206.85
1762.893	205.31
1767.28	203.94
1771.663	202.67
1776.042	202.76
1780.417	202.03
1784.787	200.22
1789.154	199.31
1793.516	198.22
1797.874	196.58
1802.228	193.94
1806.578	191.31
1810.924	188.12
1815.266	185.67
1819.603	181.76
1823.937	178.22
1828.266	174.03
1832.591	171.76
1836.913	169.22
1841.23	167.31
1845.543	166.85
1849.852	166.58
1854.156	165.58
1858.457	165.22
1862.754	165.22
1867.047	166.4
1871.335	167.76
1875.62	168.85
1879.9	169.67
1884.177	170.03
1888.449	170.22
1892.718	170.67
1896.982	170.94
1901.243	170.94
1905.499	171.85
1909.752	171.76
1914	171.85
1918.245	171.31
1922.485	171.4
1926.722	170.76
1930.954	170.12
1935.183	169.12
1939.408	167.4
1943.628	165.4
1947.845	164.12
1952.058	161.31
1956.267	159.12
1960.472	155.76
1964.673	152.31
1968.87	148.49
1973.063	146.03
1977.252	143.03
1981.438	140.31
1985.619	137.49
1989.797	135.31
1993.971	132.67
1998.14	131.31
2002.306	128.85
2006.469	128.49
2010.627	127.76
2014.781	127.4
2018.932	125.58
2023.078	124.4
2027.221	124.4
2031.36	123.85
2035.495	123.58
2039.627	123.58
2043.754	123.12
2047.878	122.58
2051.998	122.67
2056.114	123.22
2060.226	123.67
2064.334	124.49
2068.439	125.22
2072.54	125.85
2076.637	126.67
2080.73	126.12
2084.82	126.03
2088.906	125.22
2092.988	124.94
2097.066	122.67
2101.14	121.03
2105.211	118.67
2109.278	116.49
2113.342	115.03
2117.401	112.49
2121.457	109.22
2125.509	107.03
2129.558	104.58
2133.602	102.85
2137.643	100.85
2141.681	99.22
2145.714	97.31
2149.744	95.58
2153.77	94.31
2157.793	92.49
2161.812	90.76
2165.827	89.58
2169.838	88.12
2173.846	86.49
2177.851	84.76
2181.851	83.85
2185.848	82.31
2189.841	80.49
2193.831	80.03
2197.817	79.4
2201.799	79.12
2205.778	78.94
2209.753	78.67
2213.725	77.85
2217.693	77.31
2221.657	77.49
2225.618	76.58
2229.575	76.58
2233.529	76.58
2237.479	76.12
2241.425	74.58
2245.368	72.58
2249.307	71.4
2253.243	70.03
2257.175	69.58
2261.104	68.76
2265.029	66.94
2268.95	65.58
2272.868	64.03
2276.783	62.58
2280.694	61.12
2284.601	60.12
2288.505	59.85
2292.405	58.76
2296.302	58.12
2300.195	57.4
2304.085	58.12
2307.971	61.58
2311.854	72.67
2315.734	84.67
2319.609	90.67
2323.482	91.67
2327.351	91.76
2331.216	90.4
2335.078	89.76
2338.937	89.22
2342.792	88.03
2346.643	85.12
2350.492	79.67
2354.336	67.76
2358.178	54.49
2362.015	46.31
2365.85	43.49
2369.681	41.85
2373.508	41.94
2377.333	40.58
2381.153	39.76
2384.971	38.22
2388.785	38.22
2392.595	37.85
2396.402	36.4
2400.206	35.49
2404.007	35.76
2407.804	34.76
2411.597	34.4
2415.388	33.03
2419.174	32.76
2422.958	31.31
2426.738	31.22
2430.515	30.12
2434.289	29.22
2438.059	28.76
2441.825	28.12
2445.589	26.4
2449.349	25.58
2453.106	24.49
2456.859	23.85
2460.61	23.58
2464.356	24.22
2468.1	23.31
2471.84	23.58
2475.577	23.31
2479.311	22.94
2483.041	22.22
2486.768	22.31
2490.492	22.22
2494.213	22.58
2497.93	22.49
2501.644	22.22
2505.355	21.85
2509.062	22.03
2512.766	21.12
2516.467	21.4
2520.165	21.67
2523.859	22.03
2527.551	22.22
2531.239	22.67
2534.923	22.31
2538.605	21.76
2542.283	21.49
2545.958	20.67
2549.63	20.49
2553.299	20.03
2556.964	19.58
2560.626	19.12
2564.285	18.31
2567.941	17.85
2571.594	16.94
2575.243	16.12
2578.89	16.03
2582.533	14.85
2586.173	13.85
2589.809	13.76
2593.443	13.12
2597.073	12.58
2600.701	11.03
2604.325	9.85
2607.946	8.58
2611.564	8.31
2615.178	7.49
2618.79	6.03
2622.398	4.94
2626.004	4.58
2629.606	3.22
2633.205	2.4
2636.801	1.31
2640.394	1.12
2643.983	1.22
2647.57	1.03
2651.153	-0.06
2654.734	-0.78
2658.311	-0.42
2661.885	-0.6
2665.456	-0.88
2669.025	-0.88
2672.589	-1.42
2676.151	-2.06
2679.71	-2.88
2683.266	-3.24
2686.819	-3.78
2690.368	-4.51
2693.915	-4.33
2697.458	-5.69
2700.999	-6.15
2704.536	-6.6
2708.071	-7.69
2711.602	-7.42
2715.13	-7.06
2718.656	-7.33
2722.178	-7.69
2725.697	-7.06
2729.214	-6.24
2732.727	-6.6
2736.237	-6.6
2739.744	-7.42
2743.249	-7.69
2746.75	-7.42
2750.248	-8.24
2753.743	-8.87
2757.236	-9.24
2760.725	-10.78
2764.211	-12.15
2767.695	-13.15
2771.175	-14.24
2774.652	-14.33
2778.127	-14.06
2781.598	-14.88
2785.067	-15.51
2788.532	-15.6
2791.995	-16.06
2795.455	-16.33
2798.911	-15.69
2802.365	-15.6
2805.816	-16.15
2809.264	-15.78
2812.709	-16.42
2816.151	-16.78
2819.59	-16.24
2823.026	-16.06
2826.46	-16.15
2829.89	-15.97
2833.318	-16.06
2836.742	-16.51
2840.164	-16.33
2843.583	-15.6
2846.999	-15.69
2850.412	-15.6
2853.822	-15.24
2857.229	-15.6
2860.634	-16.15
2864.035	-16.33
2867.434	-17.15
2870.83	-17.6
2874.223	-17.6
2877.613	-18.78
2881	-20.06
2884.385	-21.42
2887.766	-22.33
2891.145	-22.69
2894.521	-24.06
2897.894	-24.69
2901.264	-26.06
2904.631	-26.88
2907.996	-26.97
2911.358	-27.33
2914.717	-27.42
2918.073	-27.42
2921.426	-27.42
2924.777	-27.97
2928.124	-28.78
2931.469	-29.24
2934.811	-29.78
2938.15	-29.15
2941.487	-29.51
2944.821	-29.97
2948.152	-30.88
2951.48	-31.51
2954.805	-32.33
2958.128	-32.42
2961.447	-32.97
2964.765	-34.24
2968.079	-33.97
2971.39	-34.6
2974.699	-35.88
2978.005	-36.42
2981.308	-37.24
2984.609	-37.15
2987.907	-37.51
2991.202	-37.97
2994.494	-38.6
2997.784	-38.97
3001.07	-38.51
3004.355	-39.6
3007.636	-39.88
3010.915	-40.15
3014.191	-40.24
3017.464	-40.51
3020.734	-41.06
3024.002	-41.6
3027.267	-41.78
3030.53	-42.06
3033.789	-42.24
3037.046	-42.78
3040.301	-43.51
3043.552	-42.97
3046.801	-43.15
3050.048	-43.51
3053.291	-43.51
3056.532	-43.88
3059.771	-43.78
3063.006	-44.24
3066.239	-44.42
3069.469	-44.42
3072.697	-44.33
3075.922	-43.69
3079.144	-45.06
3082.364	-45.24
3085.581	-44.97
3088.795	-44.97
3092.007	-44.15
3095.216	-44.06
3098.423	-43.88
3101.627	-44.33
3104.828	-44.97
3108.026	-44.78
3111.222	-45.15
3114.416	-44.69
3117.607	-44.97
3120.795	-45.69
3123.98	-45.78
3127.163	-46.97
3130.344	-47.97
3133.521	-48.51
3136.696	-48.42
3139.869	-47.88
3143.039	-48.33
3146.206	-48.78
3149.371	-48.88
3152.533	-49.24
3155.693	-49.15
3158.85	-50.15
3162.005	-50.6
3165.157	-50.42
3168.306	-50.97
3171.453	-51.06
3174.597	-51.51
3177.739	-52.33
3180.878	-52.33
3184.014	-52.51
3187.149	-52.78
3190.28	-52.51
3193.409	-52.42
3196.536	-52.69
3199.659	-53.24
3202.781	-53.24
3205.9	-53.33
3209.016	-53.69
3212.13	-53.88
3215.241	-53.24
3218.35	-53.33
3221.456	-53.33
3224.56	-54.06
3227.661	-53.97
3230.76	-54.15
3233.856	-54.15
3236.95	-54.42
3240.041	-54.97
3243.13	-54.24
3246.216	-54.6
3249.3	-55.42
3252.382	-55.69
3255.46	-55.88
3258.537	-56.33
3261.611	-56.15
3264.682	-56.06
3267.751	-56.42
3270.818	-56.69
3273.882	-56.78
3276.943	-57.06
3280.002	-57.06
3283.059	-57.06
3286.113	-57.33
3289.165	-57.78
3292.214	-57.69
3295.261	-58.33
3298.306	-58.69
3301.348	-58.78
3304.387	-58.69
3307.425	-58.69
3310.459	-59.24
3313.492	-59.42
3316.521	-60.15
3319.549	-60.6
3322.574	-60.51
3325.597	-60.51
3328.617	-60.78
3331.635	-60.69
3334.65	-60.42
3337.663	-60.88
3340.674	-61.24
3343.682	-61.6
3346.688	-61.33
3349.691	-60.88
3352.692	-60.88
3355.691	-60.6
3358.687	-60.24
3361.681	-60.33
3364.673	-60.88
3367.662	-60.88
3370.649	-60.51
3373.633	-60.88
3376.615	-61.06
3379.595	-61.69
3382.572	-61.69
3385.547	-61.06
3388.52	-61.06
3391.49	-61.78
3394.458	-61.78
3397.424	-60.69
3400.387	-60.97
3403.348	-61.24
3406.307	-60.69
3409.263	-60.24
3412.217	-59.33
3415.168	-59.69
3418.118	-60.24
3421.065	-60.42
3424.009	-60.24
3426.951	-60.51
3429.891	-61.69
3432.829	-61.69
3435.764	-61.06
3438.697	-61.15
3441.628	-61.24
3444.557	-61.42
3447.483	-60.97
3450.407	-60.78
3453.328	-61.15
3456.247	-61.33
3459.164	-60.6
3462.079	-59.78
3464.991	-59.88
3467.902	-60.15
3470.809	-60.42
3473.715	-60.78
3476.618	-60.51
3479.519	-60.15
3482.418	-60.42
3485.315	-60.24
3488.209	-60.15
3491.101	-60.78
3493.99	-61.51
3496.878	-61.78
3499.763	-62.24
3502.646	-61.97
3505.527	-61.33
3508.405	-61.88
3511.281	-62.24
3514.155	-61.97
3517.027	-61.78
3519.897	-61.97
3522.764	-61.97
3525.629	-61.24
3528.492	-61.33
3531.352	-61.15
3534.211	-61.15
3537.067	-62.06
3539.921	-62.42
3542.773	-62.69
3545.622	-62.6
3548.469	-63.15
3551.315	-62.88
3554.157	-62.33
3556.998	-62.51
3559.837	-62.69
3562.673	-62.78
3565.507	-63.15
3568.339	-63.06
3571.169	-62.88
3573.996	-62.24
3576.822	-62.69
3579.645	-62.69
3582.466	-62.88
3585.285	-63.6
3588.101	-63.69
3590.916	-63.51
3593.728	-63.15
3596.538	-63.42
3599.346	-63.33
3602.152	-62.42
3604.956	-63.15
3607.757	-63.24
3610.556	-62.6
3613.354	-62.24
3616.149	-62.06
3618.942	-62.06
3621.732	-61.6
3624.521	-61.97
3627.307	-62.06
3630.092	-62.51
3632.874	-63.6
3635.654	-63.24
3638.432	-63.6
3641.208	-64.6
3643.982	-65.69
3646.753	-65.51
3649.523	-66.15
3652.29	-66.51
3655.055	-66.88
3657.818	-66.6
3660.579	-66.97
3663.338	-67.24
3666.095	-68.15
3668.849	-68.33
3671.602	-67.88
3674.352	-67.51
3677.101	-68.42
3679.847	-68.6
3682.591	-69.06
3685.333	-69.24
3688.073	-69.15
3690.811	-68.69
3693.547	-68.33
3696.281	-68.42
3699.013	-68.06
3701.742	-68.51
3704.47	-68.69
3707.195	-68.33
3709.919	-68.24
3712.64	-67.97
3715.359	-67.97
3718.076	-67.97
3720.792	-67.97
3723.505	-68.51
3726.216	-68.33
3728.925	-68.42
3731.632	-68.51
3734.336	-68.06
3737.039	-68.15
3739.74	-68.88
3742.439	-68.69
3745.136	-68.69
3747.83	-68.97
3750.523	-68.78
3753.213	-68.15
3755.902	-68.33
3758.589	-68.15
3761.273	-67.51
3763.956	-67.51
3766.636	-66.69
3769.315	-65.69
3771.991	-65.24
3774.665	-64.78
3777.338	-64.6
3780.008	-64.33
3782.677	-64.33
3785.343	-63.69
3788.007	-63.24
3790.67	-62.88
3793.33	-63.15
3795.989	-63.06
3798.645	-63.06
3801.299	-63.78
3803.952	-64.06
3806.602	-64.24
3809.251	-64.24
3811.897	-64.78
3814.542	-65.15
3817.184	-65.24
3819.825	-66.06
3822.463	-65.78
3825.1	-66.6
3827.735	-66.33
3830.367	-66.42
3832.998	-66.42
3835.627	-66.6
3838.253	-66.88
3840.878	-66.78
3843.501	-66.78
3846.122	-66.78
3848.741	-66.33
3851.358	-66.6
3853.973	-66.06
3856.586	-65.6
3859.197	-63.88
3861.806	-61.24
3864.414	-55.06
3867.019	-47.15
3869.622	-35.33
3872.224	-23.6
3874.823	-14.69
3877.421	-9.24
3880.016	-7.15
3882.61	-6.24
3885.202	-6.33
3887.792	-7.6
3890.38	-10.51
3892.966	-16.42
3895.55	-24.69
3898.132	-36.88
3900.713	-48.97
3903.291	-58.24
3905.868	-63.97
3908.442	-66.42
3911.015	-68.33
3913.586	-69.42
3916.155	-69.97
3918.722	-70.24
3921.287	-70.42
3923.85	-70.06
3926.411	-70.06
3928.971	-69.88
3931.528	-70.06
3934.084	-69.97
3936.638	-69.69
3939.19	-68.88
3941.74	-68.97
3944.288	-68.33
3946.834	-67.15
3949.378	-66.51
3951.921	-66.33
3954.462	-65.6
3957	-65.42
3959.537	-65.88
3962.072	-65.88
3964.606	-66.6
3967.137	-66.97
3969.667	-66.33
3972.194	-66.6
3974.72	-66.97
3977.244	-67.33
3979.766	-67.6
3982.286	-67.6
3984.805	-67.78
3987.321	-67.06
3989.836	-66.69
3992.349	-65.69
3994.86	-65.69
3997.369	-65.15
3999.877	-64.6
4002.382	-65.24
4004.886	-65.69
4007.388	-65.78
4009.888	-65.97
4012.386	-66.15
4014.883	-66.15
4017.377	-66.78
4019.87	-66.51
4022.361	-66.33
4024.85	-67.24
4027.338	-67.6
4029.823	-66.88
4032.307	-66.33
4034.789	-65.97
4037.269	-66.24
4039.747	-65.42
4042.224	-65.6
4044.699	-65.69
4047.172	-66.33
4049.643	-66.24
4052.112	-65.97
4054.58	-66.24
4057.046	-66.24
4059.51	-66.6
4061.972	-66.78
4064.432	-66.69
4066.891	-67.24
4069.348	-66.97
4071.803	-66.88
4074.256	-66.42
4076.708	-66.33
4079.158	-66.24
4081.606	-66.51
4084.052	-67.33
4086.497	-67.51
4088.939	-68.06
4091.38	-68.15
4093.819	-56.42
4096.257	-45.42
4098.693	-34.88
4101.127	-25.6
4103.559	-16.69
4105.989	-7.24
4108.418	-6.88
4110.845	-6.69
4113.27	-6.97
4115.694	-6.51
4118.115	-6.33
4120.535	-17.42
4122.954	-28.69
4125.37	-39.15
4127.785	-49.06
4130.198	-57.97
4132.609	-67.58
4135.019	-67.76
4137.427	-67.38
4139.833	-66.59
4142.237	-66.54