File: Data/Raman/2017-08-24 - Glass, alluminum 108/Aluminum/BC1-2 - 30s - I=1, bc=5_RamanShift_1.txt
Data from BC1-2 - 30s - I=1, bc=5_RamanShift_1.txt Node

Date: Thu Aug 24 11:55:28 IDT 2017
User: aro
Spectrometer: QEPB0276
Trigger mode: 0
Integration Time (sec): 3.000000E1
Scans to average: 1
Electric dark correction enabled: true
Nonlinearity correction enabled: false
Boxcar width: 5
XAxis mode: Raman Shifts
Number of Pixels in Spectrum: 1044
>>>>>Begin Spectral Data<<<<<
160.701	237.29
166.742	374.55
172.777	523.62
178.805	652.35
184.826	760.92
190.841	851.22
196.849	1011.31
202.85	1175.76
208.845	1343.4
214.833	1506.49
220.815	1651.76
226.789	1764.31
232.758	1840.94
238.719	1885.03
244.674	1920.94
250.623	1955.67
256.565	1993.03
262.5	2026.22
268.429	2058.76
274.351	2086.03
280.267	2114.31
286.176	2140.31
292.079	2164.58
297.975	2188.49
303.865	2213.67
309.748	2236.67
315.625	2256.49
321.495	2275.67
327.359	2295.4
333.217	2311.76
339.068	2331.12
344.912	2354.22
350.751	2387.67
356.583	2424.94
362.408	2453.31
368.227	2471.12
374.04	2491.94
379.847	2524.67
385.647	2588.58
391.44	2687.67
397.228	2787.22
403.009	2846.12
408.784	2861.58
414.553	2855.67
420.315	2841.12
426.071	2829.4
431.821	2821.76
437.565	2806.85
443.302	2775.12
449.033	2707.03
454.758	2604.12
460.477	2494.49
466.189	2422.49
471.896	2377.85
477.596	2332.94
483.29	2275.58
488.978	2209.31
494.66	2136.67
500.335	2061.85
506.005	1985.85
511.668	1908.4
517.325	1827.49
522.977	1749.22
528.622	1668.4
534.261	1594.31
539.894	1530.49
545.521	1484.4
551.141	1449.49
556.756	1423.22
562.365	1403.12
567.968	1386.58
573.565	1372.94
579.155	1363.49
584.74	1354.67
590.319	1346.4
595.892	1337.76
601.459	1330.76
607.02	1322.94
612.575	1324.94
618.124	1338.76
623.667	1356.58
629.204	1366.31
634.735	1362.4
640.261	1352.03
645.781	1340.4
651.294	1327.94
656.802	1315.76
662.304	1302.4
667.8	1287.58
673.29	1262.49
678.775	1227.12
684.254	1186.85
689.726	1156.94
695.193	1138.85
700.655	1128.58
706.11	1121.31
711.56	1118.94
717.004	1119.22
722.442	1123.31
727.874	1129.58
733.301	1135.49
738.722	1140.49
744.137	1142.67
749.547	1145.4
754.951	1152.85
760.349	1158.58
765.741	1166.67
771.128	1172.49
776.509	1175.4
781.885	1174.76
787.254	1171.94
792.618	1168.49
797.977	1164.22
803.33	1163.4
808.677	1159.22
814.019	1150.67
819.355	1141.58
824.686	1127.94
830.011	1112.85
835.33	1098.31
840.644	1082.49
845.952	1066.12
851.255	1050.58
856.552	1036.49
861.844	1021.76
867.13	1007.67
872.41	995.03
877.686	981.49
882.955	969.4
888.219	957.76
893.478	946.49
898.731	937.31
903.979	930.31
909.221	924.94
914.458	919.85
919.69	915.12
924.916	912.58
930.136	910.85
935.351	906.85
940.561	904.03
945.766	900.49
950.965	896.85
956.158	893.22
961.347	887.03
966.529	879.49
971.707	873.76
976.879	868.94
982.046	863.31
987.208	858.67
992.364	858.67
997.515	858.12
1002.66	859.76
1007.801	861.22
1012.936	863.58
1018.066	867.4
1023.19	872.67
1028.309	874.12
1033.423	874.4
1038.532	875.94
1043.636	875.22
1048.734	873.67
1053.827	871.31
1058.915	867.94
1063.998	864.58
1069.075	861.67
1074.147	857.94
1079.214	852.31
1084.276	849.31
1089.333	846.03
1094.385	839.85
1099.431	832.31
1104.472	824.31
1109.509	817.4
1114.54	809.58
1119.565	803.22
1124.586	795.85
1129.602	791.03
1134.613	786.12
1139.618	781.49
1144.619	780.12
1149.614	778.67
1154.604	778.67
1159.589	779.31
1164.57	778.22
1169.545	777.58
1174.515	776.58
1179.48	775.67
1184.44	772.67
1189.395	771.03
1194.345	770.31
1199.29	767.58
1204.23	766.76
1209.165	766.31
1214.095	764.49
1219.021	764.12
1223.941	762.49
1228.856	760.94
1233.766	757.49
1238.672	753.03
1243.572	747.22
1248.467	738.12
1253.358	728.94
1258.244	720.76
1263.124	711.76
1268	704.12
1272.871	696.49
1277.737	691.58
1282.599	687.31
1287.455	684.03
1292.306	681.4
1297.153	681.22
1301.995	682.4
1306.832	682.03
1311.664	681.85
1316.491	681.49
1321.314	681.58
1326.132	680.12
1330.945	678.76
1335.753	675.4
1340.556	670.4
1345.354	667.85
1350.148	663.22
1354.937	658.12
1359.722	654.03
1364.501	648.49
1369.276	642.31
1374.046	634.58
1378.811	627.03
1383.572	619.31
1388.327	612.03
1393.079	605.94
1397.825	598.67
1402.567	591.67
1407.304	586.31
1412.036	582.94
1416.764	579.94
1421.487	580.03
1426.205	580.67
1430.919	582.94
1435.628	584.94
1440.333	587.49
1445.032	589.03
1449.727	591.03
1454.418	592.94
1459.104	594.22
1463.785	595.03
1468.462	596.31
1473.134	596.49
1477.802	597.03
1482.465	597.76
1487.123	599.31
1491.777	601.31
1496.426	604.4
1501.071	606.4
1505.711	607.58
1510.347	608.49
1514.978	607.4
1519.604	603.67
1524.226	599.67
1528.844	595.85
1533.457	595.49
1538.065	595.4
1542.669	590.94
1547.269	582.31
1551.864	573.03
1556.454	566.03
1561.041	558.85
1565.622	553.58
1570.199	548.67
1574.772	544.03
1579.34	538.03
1583.904	526.94
1588.464	515.67
1593.019	507.03
1597.569	501.94
1602.115	498.76
1606.657	495.12
1611.195	491.58
1615.728	486.58
1620.256	485.31
1624.78	483.31
1629.3	482.22
1633.816	482.94
1638.327	483.94
1642.834	485.49
1647.336	489.22
1651.834	491.03
1656.328	493.85
1660.817	496.49
1665.302	499.76
1669.783	501.67
1674.259	504.22
1678.732	505.12
1683.199	505.58
1687.663	503.67
1692.122	501.03
1696.577	497.94
1701.028	494.76
1705.474	490.12
1709.917	485.4
1714.355	479.94
1718.788	473.76
1723.218	465.31
1727.643	458.12
1732.064	449.85
1736.481	442.67
1740.893	436.12
1745.301	428.4
1749.705	422.49
1754.105	416.4
1758.501	412.76
1762.893	408.31
1767.28	404.85
1771.663	404.58
1776.042	405.03
1780.417	405.58
1784.787	404.85
1789.154	403.4
1793.516	403.03
1797.874	399.67
1802.228	397.31
1806.578	391.76
1810.924	386.49
1815.266	381.31
1819.603	373.49
1823.937	366.12
1828.266	359.67
1832.591	354.12
1836.913	351.12
1841.23	348.03
1845.543	346.22
1849.852	344.85
1854.156	343.94
1858.457	345.49
1862.754	346.03
1867.047	349.03
1871.335	351.12
1875.62	352.49
1879.9	354.4
1884.177	355.4
1888.449	356.31
1892.718	357.58
1896.982	359.03
1901.243	361.03
1905.499	362.4
1909.752	364.67
1914	365.76
1918.245	366.76
1922.485	368.12
1926.722	368.03
1930.954	368.12
1935.183	366.12
1939.408	363.49
1943.628	359.31
1947.845	355.12
1952.058	348.31
1956.267	341.31
1960.472	333.12
1964.673	324.94
1968.87	316.58
1973.063	309.4
1977.252	300.67
1981.438	294.58
1985.619	289.03
1989.797	284.03
1993.971	279.4
1998.14	276.49
2002.306	273.12
2006.469	270.49
2010.627	267.31
2014.781	265.03
2018.932	262.85
2023.078	262.03
2027.221	260.22
2031.36	259.49
2035.495	258.49
2039.627	257.49
2043.754	256.4
2047.878	255.4
2051.998	256.4
2056.114	257.67
2060.226	259.03
2064.334	260.4
2068.439	261.12
2072.54	262.31
2076.637	263.4
2080.73	263.94
2084.82	263.67
2088.906	263.03
2092.988	262.4
2097.066	260.12
2101.14	257.49
2105.211	254.31
2109.278	250.58
2113.342	246.22
2117.401	242.31
2121.457	237.31
2125.509	232.4
2129.558	227.4
2133.602	224.31
2137.643	219.94
2141.681	216.03
2145.714	212.67
2149.744	208.58
2153.77	205.4
2157.793	202.94
2161.812	199.31
2165.827	195.4
2169.838	191.76
2173.846	189.4
2177.851	186.12
2181.851	183.85
2185.848	181.03
2189.841	178.58
2193.831	176.94
2197.817	174.67
2201.799	172.58
2205.778	171.76
2209.753	170.94
2213.725	169.4
2217.693	169.22
2221.657	168.49
2225.618	166.31
2229.575	165.22
2233.529	163.85
2237.479	162.03
2241.425	160.31
2245.368	158.12
2249.307	155.49
2253.243	153.31
2257.175	152.4
2261.104	148.85
2265.029	145.94
2268.95	145.03
2272.868	142.4
2276.783	140.4
2280.694	137.67
2284.601	135.4
2288.505	133.12
2292.405	131.22
2296.302	129.12
2300.195	127.22
2304.085	127.22
2307.971	129.49
2311.854	138.49
2315.734	149.31
2319.609	153.94
2323.482	154.58
2327.351	152.94
2331.216	151.49
2335.078	149.4
2338.937	148.03
2342.792	146.31
2346.643	143.49
2350.492	137.67
2354.336	124.76
2358.178	111.58
2362.015	103.12
2365.85	100.22
2369.681	99.31
2373.508	99.03
2377.333	97.58
2381.153	96.4
2384.971	94.67
2388.785	93.49
2392.595	92.22
2396.402	91.31
2400.206	89.94
2404.007	89.03
2407.804	88.12
2411.597	86.85
2415.388	85.22
2419.174	84.76
2422.958	82.94
2426.738	82.76
2430.515	81.49
2434.289	81.03
2438.059	79.58
2441.825	78.4
2445.589	77.4
2449.349	75.67
2453.106	74.12
2456.859	72.67
2460.61	72.22
2464.356	71.76
2468.1	70.4
2471.84	70.49
2475.577	69.22
2479.311	69.49
2483.041	68.22
2486.768	67.67
2490.492	67.85
2494.213	67.76
2497.93	68.12
2501.644	67.4
2505.355	67.76
2509.062	67.76
2512.766	66.58
2516.467	67.12
2520.165	67.03
2523.859	67.67
2527.551	67.67
2531.239	68.12
2534.923	68.85
2538.605	68.49
2542.283	68.49
2545.958	67.85
2549.63	67.76
2553.299	67.31
2556.964	66.12
2560.626	65.22
2564.285	64.76
2567.941	63.94
2571.594	62.22
2575.243	61.03
2578.89	60.58
2582.533	59.22
2586.173	58.22
2589.809	56.94
2593.443	55.94
2597.073	55.22
2600.701	53.4
2604.325	51.76
2607.946	50.49
2611.564	48.85
2615.178	46.4
2618.79	44.03
2622.398	42.94
2626.004	41.4
2629.606	39.49
2633.205	38.22
2636.801	36.49
2640.394	35.49
2643.983	34.31
2647.57	33.58
2651.153	33.22
2654.734	32.58
2658.311	32.12
2661.885	31.22
2665.456	29.94
2669.025	29.67
2672.589	28.85
2676.151	27.31
2679.71	25.94
2683.266	25.12
2686.819	23.58
2690.368	21.76
2693.915	21.49
2697.458	20.67
2700.999	19.4
2704.536	19.49
2708.071	18.94
2711.602	18.76
2715.13	19.58
2718.656	19.13
2722.178	19.12
2725.697	19.49
2729.214	20.22
2732.727	20.31
2736.237	20.13
2739.744	20.03
2743.249	19.58
2746.75	18.31
2750.248	17.94
2753.743	17.22
2757.236	17.12
2760.725	16.03
2764.211	14.67
2767.695	13.76
2771.175	12.49
2774.652	11.58
2778.127	10.85
2781.598	10.49
2785.067	10.22
2788.532	9.22
2791.995	8.49
2795.455	7.58
2798.911	6.85
2802.365	6.22
2805.816	5.58
2809.264	5.76
2812.709	5.4
2816.151	5.03
2819.59	4.4
2823.026	4.85
2826.46	4.58
2829.89	3.94
2833.318	3.12
2836.742	3.03
2840.164	3.58
2843.583	2.94
2846.999	1.76
2850.412	1.4
2853.822	1.03
2857.229	0.12
2860.634	-0.6
2864.035	-1.06
2867.434	-1.33
2870.83	-1.69
2874.223	-2.51
2877.613	-4.6
2881	-5.24
2884.385	-6.51
2887.766	-8.06
2891.145	-9.06
2894.521	-10.06
2897.894	-11.6
2901.264	-14.15
2904.631	-15.42
2907.996	-15.88
2911.358	-16.97
2914.717	-17.42
2918.073	-17.97
2921.426	-18.24
2924.777	-19.24
2928.124	-20.24
2931.469	-21.06
2934.811	-21.6
2938.15	-21.15
2941.487	-21.88
2944.821	-22.69
2948.152	-23.24
2951.48	-23.78
2954.805	-24.24
2958.128	-24.78
2961.447	-24.33
2964.765	-25.15
2968.079	-25.69
2971.39	-26.24
2974.699	-26.69
2978.005	-26.97
2981.308	-27.15
2984.609	-27.06
2987.907	-27.15
2991.202	-27.88
2994.494	-28.78
2997.784	-29.88
3001.07	-29.78
3004.355	-30.42
3007.636	-30.97
3010.915	-31.6
3014.191	-32.24
3017.464	-32.97
3020.734	-34.15
3024.002	-34.88
3027.267	-35.97
3030.53	-36.42
3033.789	-37.06
3037.046	-37.51
3040.301	-37.69
3043.552	-37.78
3046.801	-38.33
3050.048	-38.6
3053.291	-38.97
3056.532	-38.97
3059.771	-39.06
3063.006	-39.33
3066.239	-39.51
3069.469	-39.24
3072.697	-39.42
3075.922	-39.42
3079.144	-40.24
3082.364	-39.97
3085.581	-39.97
3088.795	-39.78
3092.007	-40.06
3095.216	-40.6
3098.423	-40.42
3101.627	-40.6
3104.828	-41.15
3108.026	-42.06
3111.222	-42.42
3114.416	-42.69
3117.607	-42.42
3120.795	-42.78
3123.98	-43.69
3127.163	-43.69
3130.344	-43.97
3133.521	-44.97
3136.696	-45.33
3139.869	-45.33
3143.039	-44.78
3146.206	-45.15
3149.371	-45.24
3152.533	-46.6
3155.693	-46.78
3158.85	-46.69
3162.005	-47.88
3165.157	-47.88
3168.306	-48.06
3171.453	-47.97
3174.597	-48.88
3177.739	-49.97
3180.878	-50.33
3184.014	-50.42
3187.149	-50.97
3190.28	-51.24
3193.409	-51.6
3196.536	-51.24
3199.659	-51.88
3202.781	-51.97
3205.9	-52.78
3209.016	-52.24
3212.13	-52.33
3215.241	-52.06
3218.35	-52.51
3221.456	-52.42
3224.56	-53.24
3227.661	-53.6
3230.76	-54.15
3233.856	-54.06
3236.95	-54.33
3240.041	-54.6
3243.13	-55.33
3246.216	-55.78
3249.3	-56.42
3252.382	-56.78
3255.46	-56.33
3258.537	-56.6
3261.611	-56.33
3264.682	-56.33
3267.751	-56.78
3270.818	-56.78
3273.882	-56.33
3276.943	-56.42
3280.002	-56.42
3283.059	-56.24
3286.113	-56.24
3289.165	-57.33
3292.214	-57.51
3295.261	-58.42
3298.306	-58.97
3301.348	-58.78
3304.387	-58.69
3307.425	-59.42
3310.459	-59.6
3313.492	-59.42
3316.521	-60.06
3319.549	-60.6
3322.574	-60.51
3325.597	-59.97
3328.617	-60.06
3331.635	-59.33
3334.65	-59.78
3337.663	-60.51
3340.674	-60.78
3343.682	-60.42
3346.688	-60.42
3349.691	-60.51
3352.692	-60.24
3355.691	-60.06
3358.687	-60.42
3361.681	-60.69
3364.673	-62.06
3367.662	-62.51
3370.649	-61.97
3373.633	-62.6
3376.615	-63.06
3379.595	-63.69
3382.572	-63.33
3385.547	-63.24
3388.52	-63.78
3391.49	-64.6
3394.458	-64.6
3397.424	-63.97
3400.387	-64.15
3403.348	-64.97
3406.307	-64.6
3409.263	-64.42
3412.217	-64.15
3415.168	-65.06
3418.118	-65.24
3421.065	-65.15
3424.009	-64.88
3426.951	-65.15
3429.891	-65.51
3432.829	-65.88
3435.764	-65.78
3438.697	-65.78
3441.628	-66.42
3444.557	-66.42
3447.483	-65.88
3450.407	-65.88
3453.328	-66.33
3456.247	-66.42
3459.164	-66.24
3462.079	-66.15
3464.991	-65.88
3467.902	-66.15
3470.809	-65.88
3473.715	-65.6
3476.618	-65.51
3479.519	-65.33
3482.418	-65.97
3485.315	-66.15
3488.209	-65.88
3491.101	-65.78
3493.99	-65.97
3496.878	-66.06
3499.763	-66.24
3502.646	-66.6
3505.527	-67.06
3508.405	-67.33
3511.281	-67.88
3514.155	-67.97
3517.027	-67.15
3519.897	-67.15
3522.764	-67.69
3525.629	-67.33
3528.492	-66.88
3531.352	-66.88
3534.211	-67.06
3537.067	-67.24
3539.921	-67.88
3542.773	-68.42
3545.622	-68.06
3548.469	-68.51
3551.315	-68.6
3554.157	-68.15
3556.998	-68.51
3559.837	-68.69
3562.673	-68.15
3565.507	-68.15
3568.339	-67.97
3571.169	-67.15
3573.996	-66.88
3576.822	-67.33
3579.645	-67.78
3582.466	-67.97
3585.285	-68.33
3588.101	-68.42
3590.916	-68.78
3593.728	-68.88
3596.538	-68.51
3599.346	-68.42
3602.152	-68.78
3604.956	-68.42
3607.757	-68.15
3610.556	-67.15
3613.354	-66.24
3616.149	-66.33
3618.942	-65.69
3621.732	-64.97
3624.521	-65.15
3627.307	-65.24
3630.092	-65.88
3632.874	-65.78
3635.654	-65.51
3638.432	-65.78
3641.208	-66.51
3643.982	-67.69
3646.753	-67.24
3649.523	-67.78
3652.29	-67.97
3655.055	-68.33
3657.818	-68.69
3660.579	-68.33
3663.338	-68.51
3666.095	-69.51
3668.849	-69.6
3671.602	-69.6
3674.352	-69.78
3677.101	-70.88
3679.847	-71.69
3682.591	-72.24
3685.333	-71.97
3688.073	-71.97
3690.811	-72.15
3693.547	-71.97
3696.281	-71.69
3699.013	-71.33
3701.742	-71.78
3704.47	-71.69
3707.195	-71.15
3709.919	-70.69
3712.64	-70.15
3715.359	-70.06
3718.076	-69.97
3720.792	-69.78
3723.505	-70.42
3726.216	-70.6
3728.925	-71.42
3731.632	-71.42
3734.336	-71.69
3737.039	-71.69
3739.74	-71.51
3742.439	-72.15
3745.136	-72.51
3747.83	-72.78
3750.523	-72.42
3753.213	-71.78
3755.902	-71.69
3758.589	-70.88
3761.273	-70.69
3763.956	-70.51
3766.636	-69.69
3769.315	-69.69
3771.991	-69.97
3774.665	-69.6
3777.338	-69.6
3780.008	-69.97
3782.677	-70.51
3785.343	-70.51
3788.007	-70.78
3790.67	-70.6
3793.33	-70.97
3795.989	-71.15
3798.645	-71.24
3801.299	-71.15
3803.952	-71.88
3806.602	-71.69
3809.251	-71.24
3811.897	-71.15
3814.542	-71.06
3817.184	-71.15
3819.825	-71.42
3822.463	-70.69
3825.1	-71.42
3827.735	-71.51
3830.367	-71.42
3832.998	-71.06
3835.627	-71.06
3838.253	-71.78
3840.878	-71.78
3843.501	-71.97
3846.122	-71.88
3848.741	-71.15
3851.358	-71.24
3853.973	-70.97
3856.586	-70.51
3859.197	-69.33
3861.806	-67.06
3864.414	-62.6
3867.019	-56.33
3869.622	-47.06
3872.224	-36.97
3874.823	-29.24
3877.421	-24.51
3880.016	-22.51
3882.61	-21.6
3885.202	-21.42
3887.792	-22.69
3890.38	-25.15
3892.966	-29.97
3895.55	-36.51
3898.132	-46.42
3900.713	-56.06
3903.291	-63.6
3905.868	-68.88
3908.442	-71.6
3911.015	-73.15
3913.586	-74.24
3916.155	-73.78
3918.722	-73.88
3921.287	-73.97
3923.85	-73.69
3926.411	-73.88
3928.971	-74.6
3931.528	-75.24
3934.084	-75.15
3936.638	-74.97
3939.19	-74.6
3941.74	-74.51
3944.288	-74.97
3946.834	-74.24
3949.378	-73.69
3951.921	-73.42
3954.462	-72.42
3957	-72.06
3959.537	-71.97
3962.072	-71.97
3964.606	-72.69
3967.137	-72.42
3969.667	-71.69
3972.194	-71.33
3974.72	-71.78
3977.244	-71.69
3979.766	-71.6
3982.286	-71.69
3984.805	-71.88
3987.321	-71.6
3989.836	-71.51
3992.349	-70.69
3994.86	-70.88
3997.369	-70.6
3999.877	-70.33
4002.382	-70.78
4004.886	-71.6
4007.388	-72.06
4009.888	-72.15
4012.386	-72.33
4014.883	-71.88
4017.377	-71.6
4019.87	-70.78
4022.361	-70.6
4024.85	-71.6
4027.338	-71.33
4029.823	-70.51
4032.307	-69.6
4034.789	-69.69
4037.269	-69.51
4039.747	-68.78
4042.224	-68.88
4044.699	-69.33
4047.172	-70.15
4049.643	-70.51
4052.112	-70.51
4054.58	-71.24
4057.046	-71.24
4059.51	-71.42
4061.972	-70.51
4064.432	-70.69
4066.891	-71.06
4069.348	-71.15
4071.803	-71.24
4074.256	-70.51
4076.708	-70.06
4079.158	-69.15
4081.606	-68.78
4084.052	-69.15
4086.497	-69.97
4088.939	-70.97
4091.38	-71.33
4093.819	-60.78
4096.257	-50.97
4098.693	-41.33
4101.127	-32.33
4103.559	-23.51
4105.989	-15.33
4108.418	-15.06
4110.845	-14.97
4113.27	-14.42
4115.694	-13.6
4118.115	-13.06
4120.535	-23.33
4122.954	-33.24
4125.37	-42.97
4127.785	-52.69
4130.198	-61.78
4132.609	-70.38
4135.019	-70.88
4137.427	-70.75
4139.833	-70.45
4142.237	-71.04