File: Data/Raman/2017-08-24 - Glass, alluminum 108/Aluminum/BC107 - 30s - I=1, bc=5_RamanShift_1.txt
Data from BC107 - 30s - I=1, bc=5_RamanShift_1.txt Node

Date: Thu Aug 24 11:57:58 IDT 2017
User: aro
Spectrometer: QEPB0276
Trigger mode: 0
Integration Time (sec): 3.000000E1
Scans to average: 1
Electric dark correction enabled: true
Nonlinearity correction enabled: false
Boxcar width: 5
XAxis mode: Raman Shifts
Number of Pixels in Spectrum: 1044
>>>>>Begin Spectral Data<<<<<
160.701	212.21
166.742	342.73
172.777	477.12
178.805	597.1
184.826	696.38
190.841	779.69
196.849	928.78
202.85	1083.51
208.845	1239.33
214.833	1390.42
220.815	1527.15
226.789	1631.15
232.758	1698.69
238.719	1740.69
244.674	1773.6
250.623	1807.78
256.565	1843.69
262.5	1877.51
268.429	1908.33
274.351	1938.24
280.267	1966.88
286.176	1991.51
292.079	2018.33
297.975	2043.69
303.865	2070.97
309.748	2094.69
315.625	2114.51
321.495	2132.69
327.359	2150.42
333.217	2166.97
339.068	2185.51
344.912	2209.33
350.751	2243.15
356.583	2282.51
362.408	2313.69
368.227	2333.15
374.04	2353.06
379.847	2387.78
385.647	2452.42
391.44	2551.42
397.228	2650.33
403.009	2706.42
408.784	2723.69
414.553	2720.24
420.315	2702.42
426.071	2689.06
431.821	2680.06
437.565	2668.42
443.302	2637.42
449.033	2570.88
454.758	2467.51
460.477	2362.15
466.189	2293.15
471.896	2247.51
477.596	2202.42
483.29	2149.6
488.978	2087.42
494.66	2020.24
500.335	1948.15
506.005	1874.97
511.668	1802.69
517.325	1727.69
522.977	1648.97
528.622	1572.6
534.261	1503.33
539.894	1440.78
545.521	1396.06
551.141	1362.51
556.756	1338.24
562.365	1320.33
567.968	1306.6
573.565	1294.69
579.155	1285.78
584.74	1279.06
590.319	1269.69
595.892	1261.42
601.459	1255.88
607.02	1248.33
612.575	1248.51
618.124	1260.6
623.667	1278.15
629.204	1288.51
634.735	1285.42
640.261	1283.15
645.781	1284.15
651.294	1272.78
656.802	1261.06
662.304	1249.97
667.8	1237.33
673.29	1215.51
678.775	1182.6
684.254	1143.24
689.726	1112.97
695.193	1096.88
700.655	1082.15
706.11	1065.06
711.56	1065.06
717.004	1066.51
722.442	1069.88
727.874	1075.42
733.301	1081.24
738.722	1083.6
744.137	1085.69
749.547	1088.42
754.951	1093.42
760.349	1099.51
765.741	1105.42
771.128	1109.24
776.509	1113.33
781.885	1113.6
787.254	1111.78
792.618	1109.15
797.977	1108.24
803.33	1107.97
808.677	1105.78
814.019	1099.69
819.355	1090.15
824.686	1078.6
830.011	1066.15
835.33	1049.97
840.644	1034.6
845.952	1020.15
851.255	1005.88
856.552	991.69
861.844	977.42
867.13	962.88
872.41	948.33
877.686	935.15
882.955	923.06
888.219	911.42
893.478	903.24
898.731	897.06
903.979	889.06
909.221	884.06
914.458	880.15
919.69	876.69
924.916	875.06
930.136	873.15
935.351	869.33
940.561	866.24
945.766	863.24
950.965	858.06
956.158	851.78
961.347	847.51
966.529	841.33
971.707	835.15
976.879	831.15
982.046	825.97
987.208	823.15
992.364	823.97
997.515	824.88
1002.66	827.24
1007.801	830.6
1012.936	835.15
1018.066	838.69
1023.19	843.24
1028.309	847.15
1033.423	849.51
1038.532	850.97
1043.636	851.78
1048.734	850.24
1053.827	847.88
1058.915	845.06
1063.998	843.15
1069.075	839.69
1074.147	836.42
1079.214	831.69
1084.276	826.78
1089.333	822.15
1094.385	818.24
1099.431	812.88
1104.472	806.42
1109.509	800.15
1114.54	793.69
1119.565	786.06
1124.586	780.42
1129.602	775.88
1134.613	773.15
1139.618	770.6
1144.619	768.88
1149.614	767.97
1154.604	767.15
1159.589	767.78
1164.57	768.15
1169.545	768.15
1174.515	768.24
1179.48	768.69
1184.44	767.51
1189.395	766.33
1194.345	766.78
1199.29	766.42
1204.23	766.15
1209.165	767.6
1214.095	768.69
1219.021	768.78
1223.941	767.15
1228.856	766.69
1233.766	763.78
1238.672	760.88
1243.572	755.42
1248.467	748.15
1253.358	740.33
1258.244	731.78
1263.124	723.06
1268	714.06
1272.871	707.78
1277.737	704.24
1282.599	700.78
1287.455	699.24
1292.306	697.78
1297.153	696.97
1301.995	698.24
1306.832	698.06
1311.664	696.97
1316.491	695.06
1321.314	693.97
1326.132	691.6
1330.945	688.33
1335.753	684.15
1340.556	677.42
1345.354	672.06
1350.148	668.51
1354.937	662.51
1359.722	658.78
1364.501	655.69
1369.276	652.69
1374.046	647.6
1378.811	643.15
1383.572	637.88
1388.327	631.69
1393.079	626.88
1397.825	621.88
1402.567	617.51
1407.304	613.51
1412.036	610.78
1416.764	607.97
1421.487	606.06
1426.205	606.51
1430.919	607.33
1435.628	608.78
1440.333	611.69
1445.032	613.69
1449.727	613.78
1454.418	614.42
1459.104	614.88
1463.785	614.24
1468.462	613.78
1473.134	613.06
1477.802	610.97
1482.465	609.42
1487.123	608.06
1491.777	607.97
1496.426	608.51
1501.071	610.69
1505.711	609.06
1510.347	608.42
1514.978	606.69
1519.604	604.15
1524.226	602.15
1528.844	599.88
1533.457	601.6
1538.065	605.69
1542.669	604.15
1547.269	599.06
1551.864	593.15
1556.454	589.6
1561.041	585.6
1565.622	582.88
1570.199	580.42
1574.772	576.42
1579.34	574.06
1583.904	565.88
1588.464	554.6
1593.019	546.97
1597.569	542.06
1602.115	538.15
1606.657	533.06
1611.195	529.42
1615.728	524.42
1620.256	521.51
1624.78	518.33
1629.3	514.06
1633.816	512.97
1638.327	513.06
1642.834	513.24
1647.336	514.69
1651.834	514.42
1656.328	515.33
1660.817	514.78
1665.302	515.06
1669.783	513.6
1674.259	512.51
1678.732	510.88
1683.199	507.78
1687.663	502.97
1692.122	497.6
1696.577	491.88
1701.028	488.69
1705.474	482.78
1709.917	477.88
1714.355	472.24
1718.788	467.06
1723.218	462.42
1727.643	457.51
1732.064	451.24
1736.481	444.97
1740.893	439.33
1745.301	433.06
1749.705	425.33
1754.105	421.06
1758.501	416.33
1762.893	412.06
1767.28	406.69
1771.663	402.88
1776.042	399.6
1780.417	397.33
1784.787	395.6
1789.154	393.97
1793.516	392.78
1797.874	390.97
1802.228	388.69
1806.578	385.42
1810.924	382.15
1815.266	379.97
1819.603	375.97
1823.937	372.51
1828.266	369.33
1832.591	366.51
1836.913	364.42
1841.23	362.97
1845.543	362.51
1849.852	361.6
1854.156	361.24
1858.457	361.33
1862.754	361.6
1867.047	362.51
1871.335	362.88
1875.62	362.51
1879.9	362.33
1884.177	361.78
1888.449	360.33
1892.718	359.24
1896.982	357.69
1901.243	356.88
1905.499	355.97
1909.752	355.6
1914	354.88
1918.245	353.42
1922.485	353.15
1926.722	352.15
1930.954	351.33
1935.183	349.78
1939.408	347.24
1943.628	344.51
1947.845	341.24
1952.058	336.15
1956.267	331.88
1960.472	326.51
1964.673	321.69
1968.87	315.42
1973.063	311.06
1977.252	304.6
1981.438	300.51
1985.619	296.51
1989.797	293.97
1993.971	291.15
1998.14	289.69
2002.306	286.06
2006.469	284.78
2010.627	282.88
2014.781	280.97
2018.932	278.24
2023.078	276.69
2027.221	274.15
2031.36	272.6
2035.495	269.6
2039.627	266.88
2043.754	265.69
2047.878	264.06
2051.998	262.69
2056.114	262.51
2060.226	263.51
2064.334	263.06
2068.439	264.06
2072.54	263.97
2076.637	264.15
2080.73	264.78
2084.82	264.42
2088.906	261.97
2092.988	260.42
2097.066	258.15
2101.14	255.33
2105.211	251.88
2109.278	248.69
2113.342	245.06
2117.401	242.06
2121.457	238.06
2125.509	234.06
2129.558	231.51
2133.602	229.06
2137.643	227.33
2141.681	224.6
2145.714	222.15
2149.744	219.69
2153.77	217.51
2157.793	215.06
2161.812	212.24
2165.827	209.78
2169.838	207.78
2173.846	204.88
2177.851	203.06
2181.851	200.69
2185.848	198.42
2189.841	196.33
2193.831	195.15
2197.817	193.88
2201.799	192.42
2205.778	191.69
2209.753	190.51
2213.725	189.24
2217.693	188.88
2221.657	188.42
2225.618	186.78
2229.575	185.88
2233.529	184.97
2237.479	182.51
2241.425	180.33
2245.368	177.33
2249.307	175.6
2253.243	174.24
2257.175	172.51
2261.104	170.06
2265.029	167.24
2268.95	165.97
2272.868	163.33
2276.783	161.15
2280.694	158.88
2284.601	157.51
2288.505	156.69
2292.405	154.6
2296.302	152.33
2300.195	150.42
2304.085	150.06
2307.971	152.42
2311.854	160.6
2315.734	171.33
2319.609	176.15
2323.482	177.06
2327.351	175.88
2331.216	174.78
2335.078	173.51
2338.937	172.24
2342.792	171.42
2346.643	169.78
2350.492	165.24
2354.336	153.69
2358.178	140.78
2362.015	133.69
2365.85	130.6
2369.681	129.6
2373.508	128.33
2377.333	127.51
2381.153	127.15
2384.971	125.42
2388.785	124.24
2392.595	122.6
2396.402	122.51
2400.206	122.24
2404.007	120.78
2407.804	120.15
2411.597	119.24
2415.388	118.78
2419.174	118.06
2422.958	116.97
2426.738	116.78
2430.515	115.51
2434.289	114.69
2438.059	113.42
2441.825	111.78
2445.589	110.69
2449.349	110.24
2453.106	108.97
2456.859	107.88
2460.61	106.88
2464.356	105.51
2468.1	103.88
2471.84	103.24
2475.577	102.6
2479.311	101.51
2483.041	100.69
2486.768	100.6
2490.492	99.78
2494.213	98.6
2497.93	97.88
2501.644	96.88
2505.355	96.97
2509.062	96.42
2512.766	95.97
2516.467	95.69
2520.165	95.42
2523.859	94.51
2527.551	93.78
2531.239	92.78
2534.923	92.88
2538.605	92.06
2542.283	91.24
2545.958	89.33
2549.63	89.24
2553.299	87.42
2556.964	86.78
2560.626	85.69
2564.285	85.15
2567.941	84.15
2571.594	83.51
2575.243	82.6
2578.89	82.06
2582.533	80.69
2586.173	79.78
2589.809	78.15
2593.443	77.42
2597.073	75.06
2600.701	73.42
2604.325	71.78
2607.946	70.33
2611.564	69.06
2615.178	67.06
2618.79	64.97
2622.398	64.42
2626.004	63.6
2629.606	62.42
2633.205	60.69
2636.801	60.33
2640.394	59.06
2643.983	58.15
2647.57	57.06
2651.153	55.88
2654.734	54.78
2658.311	54.15
2661.885	52.6
2665.456	51.42
2669.025	50.51
2672.589	49.78
2676.151	48.51
2679.71	47.69
2683.266	46.78
2686.819	45.78
2690.368	44.33
2693.915	43.97
2697.458	43.06
2700.999	42.15
2704.536	41.15
2708.071	40.06
2711.602	39.15
2715.13	38.33
2718.656	37.33
2722.178	37.51
2725.697	37.51
2729.214	37.6
2732.727	36.88
2736.237	36.06
2739.744	35.78
2743.249	35.78
2746.75	35.33
2750.248	34.97
2753.743	34.51
2757.236	34.42
2760.725	32.51
2764.211	30.97
2767.695	30.24
2771.175	29.33
2774.652	28.78
2778.127	27.69
2781.598	26.88
2785.067	26.78
2788.532	26.51
2791.995	25.69
2795.455	24.78
2798.911	24.51
2802.365	24.15
2805.816	23.33
2809.264	23.06
2812.709	22.51
2816.151	22.6
2819.59	22.15
2823.026	21.42
2826.46	20.78
2829.89	19.97
2833.318	19.15
2836.742	18.78
2840.164	19.15
2843.583	18.15
2846.999	17.51
2850.412	16.88
2853.822	16.24
2857.229	15.51
2860.634	15.33
2864.035	15.15
2867.434	15.24
2870.83	14.88
2874.223	14.06
2877.613	12.6
2881	12.42
2884.385	10.88
2887.766	9.15
2891.145	8.33
2894.521	7.15
2897.894	5.78
2901.264	4.33
2904.631	2.88
2907.996	2.15
2911.358	1.69
2914.717	0.15
2918.073	-0.31
2921.426	-0.49
2924.777	-0.22
2928.124	-0.85
2931.469	-1.49
2934.811	-2.94
2938.15	-3.31
2941.487	-3.94
2944.821	-4.58
2948.152	-5.4
2951.48	-5.03
2954.805	-6.03
2958.128	-6.4
2961.447	-6.85
2964.765	-8.31
2968.079	-8.67
2971.39	-8.85
2974.699	-10.4
2978.005	-10.94
2981.308	-10.76
2984.609	-11.4
2987.907	-12.22
2991.202	-12.58
2994.494	-13.4
2997.784	-13.85
3001.07	-13.31
3004.355	-14.4
3007.636	-14.58
3010.915	-14.12
3014.191	-14.67
3017.464	-15.76
3020.734	-16.31
3024.002	-16.76
3027.267	-17.58
3030.53	-18.22
3033.789	-19.22
3037.046	-19.85
3040.301	-20.12
3043.552	-20.67
3046.801	-21.22
3050.048	-21.67
3053.291	-22.49
3056.532	-22.94
3059.771	-23.67
3063.006	-24.22
3066.239	-24.4
3069.469	-24.22
3072.697	-24.67
3075.922	-24.67
3079.144	-24.94
3082.364	-24.94
3085.581	-24.76
3088.795	-24.22
3092.007	-24.31
3095.216	-24.58
3098.423	-25.22
3101.627	-25.67
3104.828	-26.76
3108.026	-26.94
3111.222	-27.4
3114.416	-28.12
3117.607	-28.85
3120.795	-29.12
3123.98	-30.12
3127.163	-30.49
3130.344	-30.94
3133.521	-30.85
3136.696	-31.22
3139.869	-31.12
3143.039	-32.03
3146.206	-32.22
3149.371	-31.67
3152.533	-32.03
3155.693	-32.58
3158.85	-32.85
3162.005	-33.22
3165.157	-33.12
3168.306	-33.85
3171.453	-33.94
3174.597	-33.94
3177.739	-34.31
3180.878	-34.22
3184.014	-34.49
3187.149	-35.12
3190.28	-34.85
3193.409	-34.76
3196.536	-34.76
3199.659	-34.94
3202.781	-34.85
3205.9	-34.67
3209.016	-35.4
3212.13	-35.49
3215.241	-35.31
3218.35	-36.03
3221.456	-36.4
3224.56	-37.58
3227.661	-38.12
3230.76	-39.12
3233.856	-39.85
3236.95	-40.49
3240.041	-41.4
3243.13	-41.49
3246.216	-41.85
3249.3	-42.85
3252.382	-42.76
3255.46	-43.03
3258.537	-43.58
3261.611	-43.22
3264.682	-42.85
3267.751	-42.67
3270.818	-42.67
3273.882	-42.49
3276.943	-42.76
3280.002	-42.85
3283.059	-42.58
3286.113	-43.12
3289.165	-43.67
3292.214	-44.03
3295.261	-45.03
3298.306	-45.58
3301.348	-46.12
3304.387	-46.31
3307.425	-47.03
3310.459	-47.4
3313.492	-48.03
3316.521	-49.22
3319.549	-50.31
3322.574	-50.4
3325.597	-49.94
3328.617	-50.31
3331.635	-50.4
3334.65	-50.85
3337.663	-51.4
3340.674	-51.58
3343.682	-51.31
3346.688	-50.76
3349.691	-50.67
3352.692	-49.85
3355.691	-49.49
3358.687	-49.03
3361.681	-49.85
3364.673	-50.4
3367.662	-50.31
3370.649	-50.31
3373.633	-50.94
3376.615	-51.49
3379.595	-52.12
3382.572	-52.4
3385.547	-52.58
3388.52	-53.03
3391.49	-54.85
3394.458	-54.31
3397.424	-53.67
3400.387	-53.94
3403.348	-54.12
3406.307	-53.85
3409.263	-53.76
3412.217	-53.49
3415.168	-53.49
3418.118	-53.67
3421.065	-53.22
3424.009	-52.49
3426.951	-52.76
3429.891	-53.67
3432.829	-53.12
3435.764	-52.58
3438.697	-52.67
3441.628	-53.31
3444.557	-53.12
3447.483	-52.67
3450.407	-52.85
3453.328	-53.31
3456.247	-53.31
3459.164	-52.76
3462.079	-52.22
3464.991	-52.85
3467.902	-53.31
3470.809	-53.12
3473.715	-52.67
3476.618	-52.67
3479.519	-52.76
3482.418	-53.12
3485.315	-53.12
3488.209	-53.22
3491.101	-53.4
3493.99	-53.76
3496.878	-53.94
3499.763	-53.58
3502.646	-53.31
3505.527	-52.58
3508.405	-52.4
3511.281	-52.76
3514.155	-52.85
3517.027	-52.49
3519.897	-52.22
3522.764	-52.58
3525.629	-51.94
3528.492	-51.76
3531.352	-52.4
3534.211	-52.4
3537.067	-53.76
3539.921	-54.58
3542.773	-55.03
3545.622	-54.49
3548.469	-55.22
3551.315	-55.31
3554.157	-54.85
3556.998	-55.12
3559.837	-54.94
3562.673	-54.58
3565.507	-55.31
3568.339	-55.03
3571.169	-54.76
3573.996	-54.76
3576.822	-55.76
3579.645	-55.76
3582.466	-55.85
3585.285	-56.22
3588.101	-56.49
3590.916	-56.58
3593.728	-56.67
3596.538	-56.49
3599.346	-56.58
3602.152	-56.4
3604.956	-56.58
3607.757	-56.03
3610.556	-55.58
3613.354	-55.49
3616.149	-55.67
3618.942	-55.85
3621.732	-55.67
3624.521	-56.03
3627.307	-56.22
3630.092	-56.4
3632.874	-56.76
3635.654	-56.58
3638.432	-57.22
3641.208	-57.76
3643.982	-58.49
3646.753	-58.22
3649.523	-58.76
3652.29	-58.67
3655.055	-59.03
3657.818	-59.12
3660.579	-59.49
3663.338	-59.94
3666.095	-60.22
3668.849	-59.76
3671.602	-60.03
3674.352	-60.31
3677.101	-60.67
3679.847	-61.03
3682.591	-61.85
3685.333	-61.67
3688.073	-61.58
3690.811	-60.94
3693.547	-60.67
3696.281	-60.67
3699.013	-60.67
3701.742	-60.76
3704.47	-60.49
3707.195	-60.58
3709.919	-59.58
3712.64	-59.49
3715.359	-59.4
3718.076	-59.4
3720.792	-59.76
3723.505	-60.12
3726.216	-59.58
3728.925	-59.76
3731.632	-59.76
3734.336	-59.85
3737.039	-59.85
3739.74	-60.03
3742.439	-60.03
3745.136	-59.94
3747.83	-59.94
3750.523	-59.4
3753.213	-58.85
3755.902	-59.03
3758.589	-59.12
3761.273	-58.94
3763.956	-58.31
3766.636	-57.94
3769.315	-57.85
3771.991	-57.49
3774.665	-57.31
3777.338	-56.67
3780.008	-56.67
3782.677	-56.94
3785.343	-57.12
3788.007	-56.58
3790.67	-56.49
3793.33	-56.85
3795.989	-56.94
3798.645	-56.94
3801.299	-57.67
3803.952	-57.85
3806.602	-58.31
3809.251	-58.67
3811.897	-58.4
3814.542	-58.49
3817.184	-58.76
3819.825	-58.76
3822.463	-58.31
3825.1	-58.58
3827.735	-58.76
3830.367	-58.31
3832.998	-58.76
3835.627	-59.31
3838.253	-59.4
3840.878	-59.94
3843.501	-60.49
3846.122	-61.03
3848.741	-61.12
3851.358	-61.49
3853.973	-61.58
3856.586	-61.03
3859.197	-60.49
3861.806	-58.49
3864.414	-54.4
3867.019	-49.22
3869.622	-41.85
3872.224	-33.49
3874.823	-27.31
3877.421	-23.4
3880.016	-22.49
3882.61	-21.94
3885.202	-22.4
3887.792	-23.4
3890.38	-25.03
3892.966	-29.13
3895.55	-34.31
3898.132	-41.94
3900.713	-49.85
3903.291	-55.76
3905.868	-59.76
3908.442	-61.4
3911.015	-62.12
3913.586	-62.85
3916.155	-62.76
3918.722	-62.94
3921.287	-62.58
3923.85	-62.31
3926.411	-62.31
3928.971	-62.22
3931.528	-62.31
3934.084	-62.12
3936.638	-61.22
3939.19	-61.03
3941.74	-61.03
3944.288	-60.67
3946.834	-60.22
3949.378	-59.94
3951.921	-59.76
3954.462	-58.94
3957	-58.4
3959.537	-58.58
3962.072	-58.31
3964.606	-58.58
3967.137	-58.31
3969.667	-57.12
3972.194	-57.22
3974.72	-57.49
3977.244	-57.67
3979.766	-58.12
3982.286	-58.49
3984.805	-58.94
3987.321	-58.4
3989.836	-58.58
3992.349	-58.58
3994.86	-58.03
3997.369	-57.94
3999.877	-57.31
4002.382	-57.67
4004.886	-58.22
4007.388	-58.22
4009.888	-57.94
4012.386	-58.03
4014.883	-57.94
4017.377	-57.76
4019.87	-57.49
4022.361	-58.58
4024.85	-59.67
4027.338	-60.4
4029.823	-60.22
4032.307	-59.49
4034.789	-59.49
4037.269	-59.67
4039.747	-59.58
4042.224	-59.94
4044.699	-60.12
4047.172	-60.94
4049.643	-60.58
4052.112	-60.22
4054.58	-60.22
4057.046	-60.12
4059.51	-60.31
4061.972	-60.12
4064.432	-60.49
4066.891	-60.76
4069.348	-60.31
4071.803	-60.67
4074.256	-60.12
4076.708	-59.76
4079.158	-59.58
4081.606	-59.31
4084.052	-59.58
4086.497	-59.76
4088.939	-60.4
4091.38	-60.31
4093.819	-51.58
4096.257	-43.67
4098.693	-35.85
4101.127	-28.4
4103.559	-21.76
4105.989	-14.67
4108.418	-14.22
4110.845	-14.22
4113.27	-14.4
4115.694	-13.31
4118.115	-13.31
4120.535	-21.31
4122.954	-29.94
4125.37	-37.76
4127.785	-45.49
4130.198	-52.03
4132.609	-59.23
4135.019	-59.9
4137.427	-59.5
4139.833	-59.12
4142.237	-59.96