File: Data/Raman/2017-08-24 - Glass, alluminum 108/Aluminum/BC108 - 30s - I=1, bc=5_RamanShift_2.txt
Data from BC108 - 30s - I=1, bc=5_RamanShift_2.txt Node

Date: Thu Aug 24 11:53:58 IDT 2017
User: aro
Spectrometer: QEPB0276
Trigger mode: 0
Integration Time (sec): 3.000000E1
Scans to average: 1
Electric dark correction enabled: true
Nonlinearity correction enabled: false
Boxcar width: 5
XAxis mode: Raman Shifts
Number of Pixels in Spectrum: 1044
>>>>>Begin Spectral Data<<<<<
160.701	204.38
166.742	334.73
172.777	470.12
178.805	590.76
184.826	692.07
190.841	774.06
196.849	922.06
202.85	1076.24
208.845	1229.88
214.833	1380.97
220.815	1514.69
226.789	1617.15
232.758	1683.06
238.719	1725.78
244.674	1756.33
250.623	1784.69
256.565	1819.33
262.5	1850.33
268.429	1877.06
274.351	1903.6
280.267	1928.33
286.176	1954.42
292.079	1979.88
297.975	2004.33
303.865	2026.88
309.748	2048.6
315.625	2071.06
321.495	2089.06
327.359	2105.6
333.217	2122.06
339.068	2139.33
344.912	2162.88
350.751	2194.15
356.583	2228.78
362.408	2257.15
368.227	2273.42
374.04	2294.24
379.847	2324.69
385.647	2384.97
391.44	2482.24
397.228	2581.97
403.009	2640.06
408.784	2655.78
414.553	2650.69
420.315	2636.69
426.071	2623.15
431.821	2616.15
437.565	2602.42
443.302	2572.06
449.033	2508.69
454.758	2406.51
460.477	2300.97
466.189	2230.78
471.896	2186.88
477.596	2143.06
483.29	2087.88
488.978	2025.24
494.66	1957.42
500.335	1884.15
506.005	1810.88
511.668	1735.69
517.325	1660.78
522.977	1581.88
528.622	1505.51
534.261	1434.24
539.894	1372.33
545.521	1327.42
551.141	1294.33
556.756	1268.42
562.365	1250.06
567.968	1234.6
573.565	1223.33
579.155	1214.51
584.74	1206.15
590.319	1196.97
595.892	1189.24
601.459	1182.24
607.02	1176.42
612.575	1177.33
618.124	1190.24
623.667	1207.78
629.204	1218.24
634.735	1215.69
640.261	1203.15
645.781	1191.78
651.294	1180.42
656.802	1168.51
662.304	1157.69
667.8	1144.6
673.29	1123.42
678.775	1090.24
684.254	1052.24
689.726	1022.51
695.193	1005.15
700.655	996.51
706.11	990.6
711.56	987.6
717.004	988.06
722.442	992.69
727.874	999.87
733.301	1005.24
738.722	1008.42
744.137	1011.87
749.547	1016.15
754.951	1023.88
760.349	1032.88
765.741	1040.6
771.128	1047.24
776.509	1052.33
781.885	1051.78
787.254	1047.88
792.618	1045.6
797.977	1045.69
803.33	1045.69
808.677	1043.42
814.019	1035.42
819.355	1027.6
824.686	1016.51
830.011	1003.78
835.33	989.33
840.644	973.97
845.952	959.15
851.255	945.15
856.552	930.51
861.844	914.78
867.13	899.88
872.41	887.6
877.686	874.06
882.955	862.42
888.219	853.24
893.478	843.51
898.731	836.6
903.979	829.6
909.221	823.88
914.458	819.42
919.69	817.06
924.916	814.78
930.136	812.15
935.351	809.51
940.561	806.69
945.766	802.42
950.965	798.97
956.158	794.15
961.347	788.6
966.529	784.33
971.707	779.51
976.879	773.97
982.046	770.69
987.208	769.24
992.364	768.6
997.515	768.24
1002.66	769.97
1007.801	773.51
1012.936	778.06
1018.066	782.42
1023.19	785.78
1028.309	787.88
1033.423	790.15
1038.532	790.51
1043.636	788.06
1048.734	786.15
1053.827	785.51
1058.915	782.78
1063.998	779.24
1069.075	774.97
1074.147	772.6
1079.214	768.33
1084.276	765.51
1089.333	761.51
1094.385	756.24
1099.431	752.24
1104.472	745.06
1109.509	737.06
1114.54	729.69
1119.565	722.33
1124.586	716.97
1129.602	711.42
1134.613	705.6
1139.618	701.15
1144.619	699.33
1149.614	698.24
1154.604	697.6
1159.589	699.24
1164.57	700.33
1169.545	699.88
1174.515	700.42
1179.48	698.51
1184.44	696.6
1189.395	695.6
1194.345	695.97
1199.29	694.78
1204.23	693.6
1209.165	694.06
1214.095	692.78
1219.021	692.6
1223.941	692.42
1228.856	690.78
1233.766	688.6
1238.672	685.6
1243.572	680.69
1248.467	673.33
1253.358	665.15
1258.244	658.33
1263.124	648.6
1268	641.15
1272.871	634.33
1277.737	628.97
1282.599	624.97
1287.455	623.6
1292.306	621.78
1297.153	622.51
1301.995	622.42
1306.832	622.6
1311.664	621.78
1316.491	621.97
1321.314	621.69
1326.132	619.97
1330.945	618.6
1335.753	614.6
1340.556	608.78
1345.354	603.42
1350.148	597.15
1354.937	590.78
1359.722	585.33
1364.501	579.33
1369.276	572.97
1374.046	565.97
1378.811	560.33
1383.572	552.78
1388.327	546.42
1393.079	541.24
1397.825	535.88
1402.567	531.97
1407.304	528.15
1412.036	525.88
1416.764	524.51
1421.487	524.69
1426.205	525.24
1430.919	526.06
1435.628	527.24
1440.333	529.15
1445.032	531.06
1449.727	532.78
1454.418	533.6
1459.104	534.15
1463.785	533.69
1468.462	532.88
1473.134	531.78
1477.802	531.51
1482.465	531.42
1487.123	531.88
1491.777	531.42
1496.426	532.24
1501.071	531.6
1505.711	530.88
1510.347	530.06
1514.978	528.33
1519.604	526.33
1524.226	522.6
1528.844	519.69
1533.457	519.69
1538.065	521.51
1542.669	519.78
1547.269	512.06
1551.864	505.42
1556.454	499.15
1561.041	494.88
1565.622	490.42
1570.199	486.6
1574.772	482.51
1579.34	477.06
1583.904	467.51
1588.464	455.97
1593.019	448.33
1597.569	444.69
1602.115	440.33
1606.657	436.51
1611.195	433.97
1615.728	430.42
1620.256	427.69
1624.78	426.33
1629.3	425.69
1633.816	425.42
1638.327	426.97
1642.834	428.33
1647.336	430.15
1651.834	433.06
1656.328	435.06
1660.817	436.06
1665.302	437.78
1669.783	438.97
1674.259	439.69
1678.732	438.97
1683.199	437.51
1687.663	435.06
1692.122	431.24
1696.577	426.88
1701.028	422.88
1705.474	417.88
1709.917	412.69
1714.355	407.6
1718.788	401.69
1723.218	395.06
1727.643	388.51
1732.064	383.06
1736.481	375.97
1740.893	369.51
1745.301	364.33
1749.705	358.88
1754.105	354.78
1758.501	351.33
1762.893	347.97
1767.28	345.51
1771.663	342.42
1776.042	341.78
1780.417	339.97
1784.787	338.15
1789.154	337.97
1793.516	335.78
1797.874	333.78
1802.228	331.15
1806.578	327.24
1810.924	323.88
1815.266	318.51
1819.603	314.51
1823.937	309.42
1828.266	303.88
1832.591	301.15
1836.913	298.24
1841.23	297.24
1845.543	295.97
1849.852	296.15
1854.156	295.97
1858.457	295.69
1862.754	297.06
1867.047	298.78
1871.335	299.24
1875.62	301.24
1879.9	301.69
1884.177	302.42
1888.449	302.33
1892.718	303.97
1896.982	303.6
1901.243	303.33
1905.499	303.69
1909.752	304.88
1914	305.6
1918.245	306.33
1922.485	306.78
1926.722	306.24
1930.954	305.97
1935.183	304.42
1939.408	300.88
1943.628	296.69
1947.845	292.78
1952.058	287.78
1956.267	281.51
1960.472	274.88
1964.673	268.88
1968.87	262.51
1973.063	258.24
1977.252	251.69
1981.438	246.33
1985.619	241.15
1989.797	238.33
1993.971	235.33
1998.14	232.6
2002.306	229.6
2006.469	227.69
2010.627	224.69
2014.781	221.97
2018.932	218.69
2023.078	216.33
2027.221	214.88
2031.36	214.42
2035.495	212.33
2039.627	211.42
2043.754	210.97
2047.878	210.69
2051.998	211.88
2056.114	213.15
2060.226	214.06
2064.334	214.6
2068.439	216.51
2072.54	217.06
2076.637	217.78
2080.73	218.78
2084.82	218.24
2088.906	217.6
2092.988	217.06
2097.066	214.33
2101.14	210.78
2105.211	208.97
2109.278	206.33
2113.342	202.15
2117.401	199.15
2121.457	194.33
2125.509	191.06
2129.558	188.42
2133.602	185.78
2137.643	182.88
2141.681	179.42
2145.714	178.6
2149.744	175.88
2153.77	173.97
2157.793	172.33
2161.812	170.06
2165.827	168.6
2169.838	165.6
2173.846	163.69
2177.851	160.78
2181.851	158.78
2185.848	157.88
2189.841	155.97
2193.831	154.15
2197.817	153.06
2201.799	152.06
2205.778	151.42
2209.753	150.06
2213.725	149.06
2217.693	148.06
2221.657	147.78
2225.618	146.51
2229.575	145.42
2233.529	144.51
2237.479	143.78
2241.425	141.69
2245.368	139.6
2249.307	137.6
2253.243	136.69
2257.175	135.42
2261.104	133.24
2265.029	130.69
2268.95	129.97
2272.868	127.78
2276.783	125.78
2280.694	124.06
2284.601	123.24
2288.505	121.88
2292.405	120.6
2296.302	119.6
2300.195	118.69
2304.085	118.97
2307.971	121.33
2311.854	130.33
2315.734	140.88
2319.609	145.88
2323.482	146.15
2327.351	144.78
2331.216	144.06
2335.078	142.69
2338.937	140.33
2342.792	138.97
2346.643	136.33
2350.492	131.69
2354.336	119.88
2358.178	107.6
2362.015	101.15
2365.85	98.97
2369.681	97.88
2373.508	97.33
2377.333	96.88
2381.153	97.06
2384.971	95.15
2388.785	94.6
2392.595	94.15
2396.402	93.42
2400.206	92.15
2404.007	90.42
2407.804	89.15
2411.597	88.42
2415.388	86.88
2419.174	86.15
2422.958	84.78
2426.738	85.15
2430.515	84.24
2434.289	83.06
2438.059	81.51
2441.825	81.42
2445.589	80.33
2449.349	78.97
2453.106	77.69
2456.859	76.42
2460.61	74.69
2464.356	74.15
2468.1	72.97
2471.84	73.15
2475.577	73.15
2479.311	72.88
2483.041	71.15
2486.768	70.88
2490.492	70.15
2494.213	69.69
2497.93	69.88
2501.644	70.15
2505.355	70.24
2509.062	70.06
2512.766	68.6
2516.467	67.97
2520.165	67.51
2523.859	67.33
2527.551	66.15
2531.239	66.88
2534.923	67.06
2538.605	66.6
2542.283	66.33
2545.958	64.88
2549.63	63.97
2553.299	63.06
2556.964	62.15
2560.626	62.06
2564.285	61.42
2567.941	61.33
2571.594	59.88
2575.243	58.51
2578.89	58.06
2582.533	56.33
2586.173	54.97
2589.809	54.78
2593.443	53.88
2597.073	52.51
2600.701	51.15
2604.325	50.15
2607.946	49.33
2611.564	48.69
2615.178	47.06
2618.79	45.24
2622.398	44.24
2626.004	43.06
2629.606	41.42
2633.205	40.42
2636.801	39.51
2640.394	38.69
2643.983	37.88
2647.57	36.42
2651.153	35.6
2654.734	35.15
2658.311	34.42
2661.885	33.78
2665.456	33.6
2669.025	33.15
2672.589	32.06
2676.151	31.06
2679.71	29.33
2683.266	28.24
2686.819	27.42
2690.368	26.15
2693.915	25.78
2697.458	24.78
2700.999	23.97
2704.536	23.97
2708.071	22.78
2711.602	22.69
2715.13	23.33
2718.656	23.6
2722.178	23.78
2725.697	23.78
2729.214	24.15
2732.727	23.69
2736.237	24.24
2739.744	23.88
2743.249	22.97
2746.75	22.51
2750.248	21.78
2753.743	20.33
2757.236	19.6
2760.725	17.6
2764.211	17.33
2767.695	16.33
2771.175	15.15
2774.652	14.24
2778.127	13.15
2781.598	12.97
2785.067	13.24
2788.532	13.15
2791.995	12.97
2795.455	12.97
2798.911	13.51
2802.365	12.69
2805.816	12.06
2809.264	12.33
2812.709	12.24
2816.151	12.24
2819.59	11.88
2823.026	11.6
2826.46	11.78
2829.89	10.97
2833.318	9.97
2836.742	9.6
2840.164	9.97
2843.583	9.69
2846.999	9.69
2850.412	8.69
2853.822	8.97
2857.229	8.42
2860.634	7.78
2864.035	7.06
2867.434	6.97
2870.83	6.33
2874.223	5.88
2877.613	5.06
2881	4.6
2884.385	3.15
2887.766	2.42
2891.145	1.78
2894.521	0.24
2897.894	-0.94
2901.264	-2.22
2904.631	-2.85
2907.996	-3.58
2911.358	-3.85
2914.717	-4.76
2918.073	-5.4
2921.426	-5.4
2924.777	-6.03
2928.124	-7.31
2931.469	-7.4
2934.811	-8.03
2938.15	-8.31
2941.487	-9.03
2944.821	-9.4
2948.152	-10.12
2951.48	-10.85
2954.805	-11.22
2958.128	-12.03
2961.447	-12.4
2964.765	-12.94
2968.079	-13.4
2971.39	-13.49
2974.699	-13.76
2978.005	-14.03
2981.308	-14.03
2984.609	-14.03
2987.907	-14.03
2991.202	-14.58
2994.494	-14.94
2997.784	-15.49
3001.07	-15.67
3004.355	-16.4
3007.636	-16.67
3010.915	-17.67
3014.191	-18.31
3017.464	-19.4
3020.734	-20.67
3024.002	-21.31
3027.267	-22.4
3030.53	-23.31
3033.789	-23.76
3037.046	-24.49
3040.301	-25.22
3043.552	-26.67
3046.801	-27.4
3050.048	-27.94
3053.291	-27.94
3056.532	-28.12
3059.771	-28.76
3063.006	-29.03
3066.239	-29.31
3069.469	-29.85
3072.697	-30.22
3075.922	-29.85
3079.144	-29.85
3082.364	-29.4
3085.581	-29.58
3088.795	-29.67
3092.007	-29.76
3095.216	-30.03
3098.423	-30.4
3101.627	-30.85
3104.828	-30.76
3108.026	-30.22
3111.222	-30.58
3114.416	-30.31
3117.607	-30.4
3120.795	-30.4
3123.98	-31.22
3127.163	-30.94
3130.344	-31.94
3133.521	-31.49
3136.696	-31.58
3139.869	-31.85
3143.039	-32.4
3146.206	-33.03
3149.371	-33.12
3152.533	-34.31
3155.693	-34.49
3158.85	-34.22
3162.005	-35.12
3165.157	-34.49
3168.306	-35.03
3171.453	-34.49
3174.597	-34.67
3177.739	-35.12
3180.878	-34.94
3184.014	-34.94
3187.149	-34.67
3190.28	-34.22
3193.409	-34.03
3196.536	-33.94
3199.659	-33.94
3202.781	-34.49
3205.9	-34.85
3209.016	-34.76
3212.13	-35.03
3215.241	-34.22
3218.35	-35.12
3221.456	-35.58
3224.56	-36.49
3227.661	-36.94
3230.76	-37.22
3233.856	-37.4
3236.95	-37.58
3240.041	-37.85
3243.13	-38.31
3246.216	-38.4
3249.3	-39.4
3252.382	-38.67
3255.46	-38.12
3258.537	-38.4
3261.611	-38.4
3264.682	-38.49
3267.751	-39.12
3270.818	-39.22
3273.882	-39.4
3276.943	-39.67
3280.002	-39.94
3283.059	-39.76
3286.113	-40.12
3289.165	-41.4
3292.214	-41.85
3295.261	-42.4
3298.306	-43.22
3301.348	-43.22
3304.387	-43.12
3307.425	-43.67
3310.459	-43.67
3313.492	-44.03
3316.521	-45.58
3319.549	-46.58
3322.574	-46.58
3325.597	-46.22
3328.617	-47.22
3331.635	-47.03
3334.65	-47.4
3337.663	-48.03
3340.674	-48.58
3343.682	-48.67
3346.688	-48.49
3349.691	-48.22
3352.692	-48.03
3355.691	-47.58
3358.687	-47.76
3361.681	-47.58
3364.673	-48.22
3367.662	-48.67
3370.649	-48.94
3373.633	-49.31
3376.615	-49.76
3379.595	-50.31
3382.572	-50.31
3385.547	-50.12
3388.52	-51.03
3391.49	-51.94
3394.458	-51.49
3397.424	-50.94
3400.387	-50.49
3403.348	-51.03
3406.307	-50.22
3409.263	-49.94
3412.217	-49.12
3415.168	-49.12
3418.118	-49.67
3421.065	-48.67
3424.009	-47.94
3426.951	-48.12
3429.891	-48.94
3432.829	-49.22
3435.764	-47.67
3438.697	-48.22
3441.628	-48.76
3444.557	-48.76
3447.483	-48.12
3450.407	-47.4
3453.328	-47.94
3456.247	-48.58
3459.164	-47.94
3462.079	-47.12
3464.991	-47.03
3467.902	-48.03
3470.809	-47.85
3473.715	-47.31
3476.618	-47.67
3479.519	-47.94
3482.418	-48.67
3485.315	-48.76
3488.209	-48.12
3491.101	-48.22
3493.99	-48.31
3496.878	-48.31
3499.763	-47.76
3502.646	-47.85
3505.527	-47.31
3508.405	-47.31
3511.281	-47.4
3514.155	-47.4
3517.027	-47.22
3519.897	-47.31
3522.764	-47.94
3525.629	-47.4
3528.492	-47.22
3531.352	-47.76
3534.211	-47.76
3537.067	-49.03
3539.921	-48.94
3542.773	-49.58
3545.622	-49.49
3548.469	-49.76
3551.315	-49.94
3554.157	-50.22
3556.998	-50.76
3559.837	-51.12
3562.673	-50.58
3565.507	-50.31
3568.339	-49.94
3571.169	-49.85
3573.996	-49.76
3576.822	-49.85
3579.645	-50.12
3582.466	-50.31
3585.285	-49.94
3588.101	-50.31
3590.916	-50.67
3593.728	-50.76
3596.538	-51.12
3599.346	-51.31
3602.152	-51.4
3604.956	-51.31
3607.757	-51.58
3610.556	-51.49
3613.354	-51.03
3616.149	-51.58
3618.942	-51.03
3621.732	-50.67
3624.521	-51.31
3627.307	-51.31
3630.092	-51.49
3632.874	-52.4
3635.654	-52.12
3638.432	-52.4
3641.208	-52.4
3643.982	-53.31
3646.753	-52.85
3649.523	-53.85
3652.29	-53.94
3655.055	-53.94
3657.818	-54.22
3660.579	-54.03
3663.338	-54.03
3666.095	-54.4
3668.849	-54.22
3671.602	-53.94
3674.352	-53.76
3677.101	-54.67
3679.847	-54.67
3682.591	-55.22
3685.333	-55.58
3688.073	-55.85
3690.811	-55.94
3693.547	-55.49
3696.281	-56.31
3699.013	-56.49
3701.742	-57.12
3704.47	-56.85
3707.195	-56.58
3709.919	-56.85
3712.64	-56.4
3715.359	-55.94
3718.076	-55.76
3720.792	-55.94
3723.505	-56.67
3726.216	-55.94
3728.925	-56.03
3731.632	-55.67
3734.336	-55.85
3737.039	-55.94
3739.74	-55.49
3742.439	-55.67
3745.136	-55.76
3747.83	-56.03
3750.523	-56.22
3753.213	-55.76
3755.902	-55.76
3758.589	-55.4
3761.273	-55.94
3763.956	-55.85
3766.636	-55.67
3769.315	-55.67
3771.991	-55.4
3774.665	-55.22
3777.338	-55.03
3780.008	-54.58
3782.677	-54.76
3785.343	-54.58
3788.007	-54.76
3790.67	-54.49
3793.33	-55.22
3795.989	-54.94
3798.645	-54.85
3801.299	-55.31
3803.952	-55.67
3806.602	-55.12
3809.251	-55.12
3811.897	-54.85
3814.542	-55.03
3817.184	-54.94
3819.825	-54.58
3822.463	-53.67
3825.1	-53.67
3827.735	-53.12
3830.367	-52.94
3832.998	-52.49
3835.627	-52.76
3838.253	-53.31
3840.878	-53.4
3843.501	-53.94
3846.122	-54.12
3848.741	-53.94
3851.358	-54.12
3853.973	-54.22
3856.586	-54.4
3859.197	-53.12
3861.806	-52.03
3864.414	-48.76
3867.019	-44.58
3869.622	-38.76
3872.224	-31.58
3874.823	-25.58
3877.421	-22.76
3880.016	-21.58
3882.61	-20.76
3885.202	-20.67
3887.792	-21.58
3890.38	-22.67
3892.966	-25.94
3895.55	-29.4
3898.132	-36.03
3900.713	-42.58
3903.291	-47.94
3905.868	-51.12
3908.442	-52.85
3911.015	-53.85
3913.586	-54.49
3916.155	-54.85
3918.722	-54.94
3921.287	-55.31
3923.85	-55.22
3926.411	-54.31
3928.971	-54.4
3931.528	-54.76
3934.084	-54.67
3936.638	-54.4
3939.19	-53.94
3941.74	-54.03
3944.288	-53.58
3946.834	-53.4
3949.378	-52.94
3951.921	-53.4
3954.462	-52.85
3957	-52.85
3959.537	-52.76
3962.072	-52.31
3964.606	-52.76
3967.137	-52.67
3969.667	-51.76
3972.194	-52.03
3974.72	-52.22
3977.244	-52.31
3979.766	-51.94
3982.286	-52.58
3984.805	-52.22
3987.321	-52.12
3989.836	-52.4
3992.349	-51.67
3994.86	-51.67
3997.369	-51.31
3999.877	-50.58
4002.382	-50.85
4004.886	-51.22
4007.388	-52.03
4009.888	-52.03
4012.386	-52.4
4014.883	-52.49
4017.377	-52.4
4019.87	-52.22
4022.361	-52.85
4024.85	-54.4
4027.338	-54.85
4029.823	-54.12
4032.307	-53.49
4034.789	-53.49
4037.269	-53.49
4039.747	-53.76
4042.224	-53.76
4044.699	-54.76
4047.172	-55.85
4049.643	-55.85
4052.112	-55.12
4054.58	-55.03
4057.046	-55.4
4059.51	-55.31
4061.972	-54.76
4064.432	-55.4
4066.891	-55.03
4069.348	-55.22
4071.803	-54.67
4074.256	-53.49
4076.708	-53.22
4079.158	-53.4
4081.606	-53.67
4084.052	-53.94
4086.497	-54.67
4088.939	-54.94
4091.38	-54.4
4093.819	-47.94
4096.257	-41.22
4098.693	-34.85
4101.127	-28.94
4103.559	-23.58
4105.989	-17.76
4108.418	-17.76
4110.845	-18.31
4113.27	-17.85
4115.694	-17.31
4118.115	-17.31
4120.535	-23.67
4122.954	-30.12
4125.37	-36.67
4127.785	-43.12
4130.198	-48.31
4132.609	-54.12
4135.019	-54.24
4137.427	-53.38
4139.833	-53.55
4142.237	-54.12