File: Data/Raman/2017-08-24 - Glass, alluminum 108/Aluminum/BC108 - 30s - I=1, bc=5_RamanShift_1.txt
Data from BC108 - 30s - I=1, bc=5_RamanShift_1.txt Node

Date: Thu Aug 24 11:53:10 IDT 2017
User: aro
Spectrometer: QEPB0276
Trigger mode: 0
Integration Time (sec): 3.000000E1
Scans to average: 1
Electric dark correction enabled: true
Nonlinearity correction enabled: false
Boxcar width: 5
XAxis mode: Raman Shifts
Number of Pixels in Spectrum: 1044
>>>>>Begin Spectral Data<<<<<
160.701	227.38
166.742	370.66
172.777	520
178.805	654.15
184.826	766.38
190.841	858.92
196.849	1025.19
202.85	1196.01
208.845	1368.56
214.833	1533.92
220.815	1683.01
226.789	1799.01
232.758	1874.92
238.719	1921.38
244.674	1954.83
250.623	1988.1
256.565	2024.1
262.5	2056.65
268.429	2087.1
274.351	2114.83
280.267	2143.47
286.176	2169.92
292.079	2194.74
297.975	2218.28
303.865	2241.56
309.748	2265.19
315.625	2285.92
321.495	2305.01
327.359	2324.1
333.217	2338.1
339.068	2354.83
344.912	2375.19
350.751	2403.74
356.583	2437.01
362.408	2462.28
368.227	2478.19
374.04	2495.83
379.847	2524.83
385.647	2582.38
391.44	2672.74
397.228	2766.38
403.009	2819.01
408.784	2834.28
414.553	2829.74
420.315	2811.47
426.071	2799.19
431.821	2789.28
437.565	2773.83
443.302	2743.56
449.033	2681.1
454.758	2583.74
460.477	2481.83
466.189	2415.92
471.896	2374.01
477.596	2329.01
483.29	2278.56
488.978	2216.92
494.66	2153.56
500.335	2084.47
506.005	2013.1
511.668	1939.83
517.325	1863.19
522.977	1787.28
528.622	1711.19
534.261	1640.38
539.894	1582.28
545.521	1536.74
551.141	1503.74
556.756	1477.74
562.365	1457.83
567.968	1440.83
573.565	1429.01
579.155	1420.1
584.74	1411.92
590.319	1403.92
595.892	1396.28
601.459	1387.56
607.02	1379.19
612.575	1377.74
618.124	1389.28
623.667	1405.28
629.204	1415.83
634.735	1412.01
640.261	1400.92
645.781	1389.65
651.294	1376.28
656.802	1363.65
662.304	1353.56
667.8	1342.28
673.29	1322.1
678.775	1288.19
684.254	1250.56
689.726	1220.38
695.193	1202.56
700.655	1192.65
706.11	1186.19
711.56	1183.74
717.004	1182.28
722.442	1185.01
727.874	1188.83
733.301	1193.74
738.722	1197.56
744.137	1200.83
749.547	1203.28
754.951	1210.01
760.349	1216.92
765.741	1223.19
771.128	1228.28
776.509	1231.92
781.885	1229.28
787.254	1224.28
792.618	1220.01
797.977	1218.01
803.33	1214.47
808.677	1210.38
814.019	1201.01
819.355	1191.01
824.686	1179.56
830.011	1165.74
835.33	1150.92
840.644	1137.74
845.952	1124.47
851.255	1110.01
856.552	1095.01
861.844	1080.19
867.13	1066.19
872.41	1053.1
877.686	1039.01
882.955	1026.1
888.219	1013.92
893.478	1004.83
898.731	994.38
903.979	986.83
909.221	981.65
914.458	976.01
919.69	974.1
924.916	970.65
930.136	967.28
935.351	964.56
940.561	960.83
945.766	956.83
950.965	951.56
956.158	946.01
961.347	939.1
966.529	931.19
971.707	924.47
976.879	917.1
982.046	912.74
987.208	909.92
992.364	907.56
997.515	906.19
1002.66	908.1
1007.801	910.1
1012.936	913.56
1018.066	916.74
1023.19	921.74
1028.309	924.19
1033.423	925.56
1038.532	924.56
1043.636	923.19
1048.734	921.28
1053.827	917.74
1058.915	913.56
1063.998	910.19
1069.075	907.83
1074.147	904.01
1079.214	897.56
1084.276	893.38
1089.333	887.92
1094.385	883.28
1099.431	876.65
1104.472	869.01
1109.509	862.1
1114.54	854.56
1119.565	847.28
1124.586	838.92
1129.602	833.1
1134.613	828.74
1139.618	824.65
1144.619	821.47
1149.614	819.74
1154.604	817.83
1159.589	817.83
1164.57	816.19
1169.545	814.92
1174.515	812.92
1179.48	811.1
1184.44	809.01
1189.395	806.28
1194.345	804.19
1199.29	803.65
1204.23	801.38
1209.165	800.56
1214.095	799.38
1219.021	799.56
1223.941	798.28
1228.856	795.83
1233.766	792.65
1238.672	786.92
1243.572	780.74
1248.467	773.1
1253.358	763.74
1258.244	755.01
1263.124	746.92
1268	738.19
1272.871	729.83
1277.737	723.92
1282.599	718.28
1287.455	714.74
1292.306	713.92
1297.153	714.56
1301.995	714.83
1306.832	714.47
1311.664	713.38
1316.491	712.1
1321.314	711.65
1326.132	711.47
1330.945	707.47
1335.753	704.1
1340.556	698.47
1345.354	691.83
1350.148	683.56
1354.937	675.28
1359.722	669.1
1364.501	663.38
1369.276	656.28
1374.046	647.83
1378.811	639.38
1383.572	632.83
1388.327	626.28
1393.079	620.1
1397.825	614.47
1402.567	609.19
1407.304	605.74
1412.036	603.65
1416.764	600.74
1421.487	600.28
1426.205	600.65
1430.919	600.74
1435.628	602.1
1440.333	603.38
1445.032	604.83
1449.727	606.56
1454.418	608.56
1459.104	608.83
1463.785	608.1
1468.462	607.92
1473.134	606.19
1477.802	607.1
1482.465	606.92
1487.123	608.01
1491.777	607.56
1496.426	608.28
1501.071	607.1
1505.711	606.19
1510.347	605.28
1514.978	603.56
1519.604	599.74
1524.226	595.92
1528.844	591.19
1533.457	589.1
1538.065	588.19
1542.669	586.1
1547.269	579.28
1551.864	572.65
1556.454	565.74
1561.041	560.19
1565.622	554.19
1570.199	551.38
1574.772	547.92
1579.34	542.01
1583.904	533.83
1588.464	523.01
1593.019	514.19
1597.569	508.83
1602.115	505.1
1606.657	500.19
1611.195	496.01
1615.728	491.74
1620.256	487.74
1624.78	484.01
1629.3	482.74
1633.816	483.37
1638.327	482.74
1642.834	483.01
1647.336	484.65
1651.834	485.38
1656.328	488.74
1660.817	490.47
1665.302	492.65
1669.783	493.19
1674.259	495.01
1678.732	493.74
1683.199	490.92
1687.663	487.74
1692.122	485.01
1696.577	481.38
1701.028	477.19
1705.474	470.83
1709.917	466.38
1714.355	459.83
1718.788	454.1
1723.218	446.47
1727.643	439.38
1732.064	432.83
1736.481	426.1
1740.893	419.28
1745.301	412.38
1749.705	405.74
1754.105	399.83
1758.501	394.83
1762.893	391.38
1767.28	387.92
1771.663	385.65
1776.042	385.56
1780.417	384.74
1784.787	383.1
1789.154	380.92
1793.516	378.56
1797.874	375.92
1802.228	373.28
1806.578	368.01
1810.924	362.83
1815.266	357.28
1819.603	351.56
1823.937	345.19
1828.266	339.74
1832.591	336.65
1836.913	334.01
1841.23	331.19
1845.543	329.92
1849.852	329.56
1854.156	329.65
1858.457	330.47
1862.754	331.56
1867.047	333.28
1871.335	334.56
1875.62	336.1
1879.9	336.65
1884.177	336.65
1888.449	337.65
1892.718	338.74
1896.982	339.38
1901.243	338.92
1905.499	340.1
1909.752	340.47
1914	340.28
1918.245	340.38
1922.485	339.56
1926.722	339.01
1930.954	338.92
1935.183	336.1
1939.408	332.28
1943.628	327.56
1947.845	323.19
1952.058	317.47
1956.267	311.47
1960.472	304.65
1964.673	298.28
1968.87	291.38
1973.063	284.74
1977.252	277.65
1981.438	273.01
1985.619	269.01
1989.797	265.19
1993.971	262.01
1998.14	258.65
2002.306	256.47
2006.469	254.01
2010.627	250.19
2014.781	248.28
2018.932	245.65
2023.078	244.1
2027.221	242.19
2031.36	240.28
2035.495	238.83
2039.627	237.47
2043.754	236.19
2047.878	234.65
2051.998	235.28
2056.114	236.47
2060.226	237.38
2064.334	238.65
2068.439	239.74
2072.54	240.56
2076.637	241.65
2080.73	242.65
2084.82	242.56
2088.906	241.19
2092.988	240.37
2097.066	237.47
2101.14	234.19
2105.211	231.38
2109.278	228.38
2113.342	224.92
2117.401	221.19
2121.457	216.92
2125.509	212.01
2129.558	208.92
2133.602	206.47
2137.643	203.83
2141.681	201.28
2145.714	199.92
2149.744	197.19
2153.77	195.1
2157.793	191.92
2161.812	188.47
2165.827	185.83
2169.838	183.19
2173.846	180.01
2177.851	177.38
2181.851	174.47
2185.848	172.47
2189.841	170.01
2193.831	167.92
2197.817	165.38
2201.799	164.47
2205.778	164.74
2209.753	163.1
2213.725	162.38
2217.693	162.28
2221.657	161.19
2225.618	159.92
2229.575	159.28
2233.529	158.65
2237.479	157.28
2241.425	156.01
2245.368	153.92
2249.307	151.1
2253.243	150.19
2257.175	148.56
2261.104	146.28
2265.029	144.28
2268.95	143.01
2272.868	140.83
2276.783	138.19
2280.694	136.01
2284.601	133.56
2288.505	132.1
2292.405	130.65
2296.302	128.83
2300.195	127.38
2304.085	127.37
2307.971	129.19
2311.854	137.83
2315.734	147.01
2319.609	151.83
2323.482	152.19
2327.351	151.19
2331.216	149.47
2335.078	147.92
2338.937	146.28
2342.792	144.65
2346.643	142.01
2350.492	137.74
2354.336	125.92
2358.178	113.47
2362.015	106.19
2365.85	103.47
2369.681	103.1
2373.508	102.1
2377.333	101.47
2381.153	101.01
2384.971	98.92
2388.785	98.47
2392.595	97.83
2396.402	97.47
2400.206	96.92
2404.007	96.19
2407.804	96.19
2411.597	94.92
2415.388	94.28
2419.174	93.92
2422.958	93.28
2426.738	93.83
2430.515	92.28
2434.289	90.83
2438.059	89.47
2441.825	88.1
2445.589	87.38
2449.349	85.47
2453.106	84.38
2456.859	82.92
2460.61	81.47
2464.356	79.38
2468.1	78.56
2471.84	78.65
2475.577	78.92
2479.311	78.56
2483.041	78.19
2486.768	77.74
2490.492	77.56
2494.213	76.65
2497.93	76.74
2501.644	76.74
2505.355	77.38
2509.062	76.47
2512.766	75.56
2516.467	75.01
2520.165	74.56
2523.859	75.01
2527.551	74.38
2531.239	74.56
2534.923	75.65
2538.605	75.19
2542.283	75.1
2545.958	74.56
2549.63	75.19
2553.299	74.28
2556.964	73.65
2560.626	73.01
2564.285	71.47
2567.941	70.01
2571.594	68.01
2575.243	66.83
2578.89	66.28
2582.533	64.83
2586.173	63.65
2589.809	61.56
2593.443	60.47
2597.073	58.65
2600.701	56.56
2604.325	55.56
2607.946	54.65
2611.564	54.47
2615.178	52.83
2618.79	50.83
2622.398	49.01
2626.004	47.28
2629.606	46.38
2633.205	45.56
2636.801	44.65
2640.394	44.56
2643.983	44.1
2647.57	42.92
2651.153	41.38
2654.734	40.19
2658.311	39.56
2661.885	38.56
2665.456	38.1
2669.025	37.1
2672.589	35.28
2676.151	33.83
2679.71	32.19
2683.266	30.74
2686.819	30.28
2690.368	28.92
2693.915	28.65
2697.458	27.83
2700.999	27.01
2704.536	26.19
2708.071	25.1
2711.602	24.83
2715.13	25.1
2718.656	25.28
2722.178	25.01
2725.697	25.19
2729.214	25.92
2732.727	25.74
2736.237	25.28
2739.744	25.56
2743.249	25.28
2746.75	25.38
2750.248	24.38
2753.743	23.47
2757.236	22.83
2760.725	21.38
2764.211	19.92
2767.695	18.19
2771.175	16.92
2774.652	16.56
2778.127	15.83
2781.598	15.01
2785.067	14.74
2788.532	14.83
2791.995	14.38
2795.455	13.83
2798.911	13.92
2802.365	13.83
2805.816	13.92
2809.264	13.19
2812.709	12.19
2816.151	11.56
2819.59	11.47
2823.026	11.01
2826.46	10.56
2829.89	9.74
2833.318	8.65
2836.742	8.28
2840.164	8.1
2843.583	8.1
2846.999	8.01
2850.412	8.01
2853.822	7.56
2857.229	6.65
2860.634	5.83
2864.035	5.74
2867.434	5.56
2870.83	4.74
2874.223	3.56
2877.613	1.74
2881	0.38
2884.385	-1.26
2887.766	-2.62
2891.145	-3.26
2894.521	-4.26
2897.894	-5.17
2901.264	-6.9
2904.631	-7.99
2907.996	-8.35
2911.358	-9.08
2914.717	-8.99
2918.073	-9.35
2921.426	-9.17
2924.777	-9.44
2928.124	-10.26
2931.469	-10.81
2934.811	-11.53
2938.15	-11.44
2941.487	-11.81
2944.821	-12.72
2948.152	-12.9
2951.48	-13.9
2954.805	-14.62
2958.128	-15.62
2961.447	-16.08
2964.765	-16.9
2968.079	-17.26
2971.39	-17.44
2974.699	-17.9
2978.005	-18.44
2981.308	-17.99
2984.609	-18.35
2987.907	-18.72
2991.202	-19.35
2994.494	-19.72
2997.784	-20.35
3001.07	-20.53
3004.355	-20.9
3007.636	-21.44
3010.915	-21.99
3014.191	-22.44
3017.464	-23.44
3020.734	-24.35
3024.002	-24.17
3027.267	-24.9
3030.53	-25.08
3033.789	-25.53
3037.046	-26.08
3040.301	-26.62
3043.552	-27.17
3046.801	-27.81
3050.048	-28.17
3053.291	-28.35
3056.532	-28.08
3059.771	-28.72
3063.006	-28.81
3066.239	-28.9
3069.469	-29.26
3072.697	-29.53
3075.922	-30.17
3079.144	-30.62
3082.364	-30.35
3085.581	-30.72
3088.795	-30.99
3092.007	-31.26
3095.216	-31.72
3098.423	-31.72
3101.627	-31.99
3104.828	-32.17
3108.026	-32.17
3111.222	-31.81
3114.416	-31.53
3117.607	-31.72
3120.795	-31.81
3123.98	-32.08
3127.163	-31.9
3130.344	-32.44
3133.521	-32.9
3136.696	-33.17
3139.869	-33.53
3143.039	-33.08
3146.206	-33.53
3149.371	-33.72
3152.533	-34.08
3155.693	-33.99
3158.85	-34.17
3162.005	-34.99
3165.157	-34.53
3168.306	-34.44
3171.453	-34.35
3174.597	-34.26
3177.739	-35.53
3180.878	-35.9
3184.014	-35.99
3187.149	-37.17
3190.28	-37.17
3193.409	-37.44
3196.536	-37.35
3199.659	-37.17
3202.781	-37.72
3205.9	-37.99
3209.016	-37.99
3212.13	-37.99
3215.241	-37.53
3218.35	-38.17
3221.456	-37.99
3224.56	-38.72
3227.661	-38.72
3230.76	-39.62
3233.856	-40.26
3236.95	-40.08
3240.041	-40.35
3243.13	-39.99
3246.216	-40.62
3249.3	-40.99
3252.382	-40.9
3255.46	-39.9
3258.537	-40.44
3261.611	-40.26
3264.682	-40.17
3267.751	-40.35
3270.818	-40.72
3273.882	-40.81
3276.943	-41.81
3280.002	-41.72
3283.059	-41.62
3286.113	-42.08
3289.165	-43.35
3292.214	-43.08
3295.261	-43.62
3298.306	-44.26
3301.348	-44.81
3304.387	-45.35
3307.425	-45.9
3310.459	-45.53
3313.492	-45.62
3316.521	-46.44
3319.549	-47.44
3322.574	-47.72
3325.597	-47.72
3328.617	-48.17
3331.635	-47.81
3334.65	-48.08
3337.663	-48.26
3340.674	-48.44
3343.682	-48.9
3346.688	-48.72
3349.691	-49.17
3352.692	-48.53
3355.691	-48.44
3358.687	-48.9
3361.681	-49.17
3364.673	-49.99
3367.662	-50.35
3370.649	-50.35
3373.633	-51.53
3376.615	-52.08
3379.595	-52.72
3382.572	-52.62
3385.547	-52.72
3388.52	-52.9
3391.49	-53.72
3394.458	-53.9
3397.424	-53.81
3400.387	-53.53
3403.348	-54.26
3406.307	-53.44
3409.263	-53.35
3412.217	-53.26
3415.168	-53.17
3418.118	-53.26
3421.065	-53.17
3424.009	-52.9
3426.951	-53.08
3429.891	-53.62
3432.829	-53.72
3435.764	-52.81
3438.697	-53.44
3441.628	-54.08
3444.557	-53.81
3447.483	-53.72
3450.407	-54.08
3453.328	-54.35
3456.247	-54.53
3459.164	-53.9
3462.079	-52.99
3464.991	-53.26
3467.902	-54.08
3470.809	-53.72
3473.715	-52.81
3476.618	-52.53
3479.519	-52.81
3482.418	-52.81
3485.315	-52.99
3488.209	-52.72
3491.101	-53.08
3493.99	-53.17
3496.878	-52.9
3499.763	-52.08
3502.646	-51.9
3505.527	-51.44
3508.405	-51.62
3511.281	-51.53
3514.155	-51.44
3517.027	-51.53
3519.897	-51.17
3522.764	-51.17
3525.629	-50.53
3528.492	-50.72
3531.352	-50.9
3534.211	-50.72
3537.067	-51.72
3539.921	-52.17
3542.773	-52.81
3545.622	-52.44
3548.469	-52.62
3551.315	-52.62
3554.157	-52.08
3556.998	-52.53
3559.837	-52.53
3562.673	-52.72
3565.507	-53.35
3568.339	-53.17
3571.169	-53.08
3573.996	-52.35
3576.822	-52.72
3579.645	-52.72
3582.466	-52.72
3585.285	-53.17
3588.101	-53.26
3590.916	-53.62
3593.728	-53.53
3596.538	-53.44
3599.346	-53.17
3602.152	-52.9
3604.956	-53.08
3607.757	-53.35
3610.556	-53.08
3613.354	-53.08
3616.149	-53.35
3618.942	-53.44
3621.732	-52.99
3624.521	-53.62
3627.307	-53.44
3630.092	-53.9
3632.874	-54.44
3635.654	-54.35
3638.432	-54.81
3641.208	-55.72
3643.982	-56.44
3646.753	-56.81
3649.523	-57.72
3652.29	-57.62
3655.055	-57.62
3657.818	-58.08
3660.579	-58.9
3663.338	-58.81
3666.095	-59.35
3668.849	-58.99
3671.602	-58.26
3674.352	-58.53
3677.101	-58.9
3679.847	-58.62
3682.591	-59.53
3685.333	-59.62
3688.073	-59.44
3690.811	-59.26
3693.547	-59.35
3696.281	-59.53
3699.013	-59.26
3701.742	-59.72
3704.47	-59.44
3707.195	-58.9
3709.919	-58.81
3712.64	-58.17
3715.359	-58.62
3718.076	-58.62
3720.792	-57.99
3723.505	-58.81
3726.216	-58.53
3728.925	-58.81
3731.632	-58.99
3734.336	-59.35
3737.039	-59.72
3739.74	-59.81
3742.439	-59.72
3745.136	-58.81
3747.83	-58.81
3750.523	-59.08
3753.213	-58.26
3755.902	-58.35
3758.589	-58.44
3761.273	-58.53
3763.956	-58.08
3766.636	-57.9
3769.315	-57.53
3771.991	-57.62
3774.665	-58.08
3777.338	-57.9
3780.008	-57.17
3782.677	-57.44
3785.343	-56.9
3788.007	-56.53
3790.67	-55.44
3793.33	-55.53
3795.989	-54.81
3798.645	-54.9
3801.299	-54.99
3803.952	-54.72
3806.602	-55.08
3809.251	-55.35
3811.897	-55.26
3814.542	-55.35
3817.184	-55.44
3819.825	-55.9
3822.463	-55.44
3825.1	-55.81
3827.735	-55.72
3830.367	-55.81
3832.998	-55.9
3835.627	-55.53
3838.253	-55.62
3840.878	-54.99
3843.501	-55.26
3846.122	-55.81
3848.741	-55.99
3851.358	-56.26
3853.973	-56.62
3856.586	-56.53
3859.197	-55.35
3861.806	-54.35
3864.414	-51.17
3867.019	-46.53
3869.622	-40.99
3872.224	-33.72
3874.823	-27.72
3877.421	-23.9
3880.016	-22.53
3882.61	-21.44
3885.202	-21.53
3887.792	-22.81
3890.38	-23.9
3892.966	-27.35
3895.55	-32.17
3898.132	-38.81
3900.713	-46.35
3903.291	-51.81
3905.868	-55.53
3908.442	-57.53
3911.015	-58.72
3913.586	-59.26
3916.155	-59.62
3918.722	-59.35
3921.287	-59.17
3923.85	-59.53
3926.411	-59.44
3928.971	-59.72
3931.528	-60.35
3934.084	-60.35
3936.638	-59.9
3939.19	-59.81
3941.74	-59.81
3944.288	-59.35
3946.834	-59.62
3949.378	-59.62
3951.921	-59.81
3954.462	-59.17
3957	-58.9
3959.537	-58.62
3962.072	-58.44
3964.606	-58.9
3967.137	-58.53
3969.667	-57.99
3972.194	-58.35
3974.72	-58.35
3977.244	-58.72
3979.766	-58.35
3982.286	-58.81
3984.805	-58.62
3987.321	-58.72
3989.836	-58.9
3992.349	-58.35
3994.86	-58.81
3997.369	-58.35
3999.877	-57.35
4002.382	-57.62
4004.886	-57.99
4007.388	-58.08
4009.888	-57.99
4012.386	-58.53
4014.883	-58.17
4017.377	-57.9
4019.87	-57.17
4022.361	-56.99
4024.85	-57.72
4027.338	-58.53
4029.823	-58.26
4032.307	-57.26
4034.789	-57.53
4037.269	-57.26
4039.747	-56.81
4042.224	-56.99
4044.699	-57.53
4047.172	-58.81
4049.643	-58.72
4052.112	-58.44
4054.58	-58.72
4057.046	-58.44
4059.51	-58.44
4061.972	-58.35
4064.432	-58.62
4066.891	-58.62
4069.348	-58.17
4071.803	-58.08
4074.256	-57.17
4076.708	-56.72
4079.158	-56.9
4081.606	-56.62
4084.052	-57.44
4086.497	-58.35
4088.939	-58.53
4091.38	-58.62
4093.819	-51.62
4096.257	-45.62
4098.693	-39.17
4101.127	-33.72
4103.559	-28.53
4105.989	-22.26
4108.418	-21.81
4110.845	-21.35
4113.27	-21.17
4115.694	-20.53
4118.115	-20.26
4120.535	-26.72
4122.954	-32.99
4125.37	-39.35
4127.785	-45.53
4130.198	-50.99
4132.609	-57.23
4135.019	-57.51
4137.427	-57.25
4139.833	-56.62
4142.237	-56.79