File: Data/Raman/2017-08-29 - Alluminum 2/Aug 29 2017 - Aluminum 2/blank 3_RamanShift_2.txt
Data from blank 3_RamanShift_2.txt Node

Date: Tue Aug 29 12:47:07 IDT 2017
User: aro
Spectrometer: QEPB0276
Trigger mode: 0
Integration Time (sec): 3.000000E1
Scans to average: 1
Electric dark correction enabled: true
Nonlinearity correction enabled: false
Boxcar width: 0
XAxis mode: Raman Shifts
Number of Pixels in Spectrum: 1044
>>>>>Begin Spectral Data<<<<<
160.701	35.88
166.742	38.88
172.777	77.88
178.805	180.88
184.826	441.88
190.841	855.88
196.849	1379.88
202.85	1749.88
208.845	1859.88
214.833	1890.88
220.815	1910.88
226.789	1946.88
232.758	1996.88
238.719	2072.88
244.674	2103.88
250.623	2154.88
256.565	2172.88
262.5	2216.88
268.429	2239.88
274.351	2284.88
280.267	2322.88
286.176	2385.88
292.079	2414.88
297.975	2453.88
303.865	2477.88
309.748	2522.88
315.625	2566.88
321.495	2567.88
327.359	2609.88
333.217	2601.88
339.068	2655.88
344.912	2693.88
350.751	2729.88
356.583	2727.88
362.408	2747.88
368.227	2837.88
374.04	2971.88
379.847	3133.88
385.647	3240.88
391.44	3141.88
397.228	3003.88
403.009	3023.88
408.784	3310.88
414.553	3887.88
420.315	4548.88
426.071	4600.88
431.821	3882.88
437.565	3281.88
443.302	3099.88
449.033	2985.88
454.758	2924.88
460.477	2878.88
466.189	2812.88
471.896	2758.88
477.596	2746.88
483.29	2701.88
488.978	2703.88
494.66	2651.88
500.335	2537.88
506.005	2327.88
511.668	2072.88
517.325	1867.88
522.977	1713.88
528.622	1592.88
534.261	1493.88
539.894	1450.88
545.521	1391.88
551.141	1358.88
556.756	1328.88
562.365	1292.88
567.968	1285.88
573.565	1275.88
579.155	1305.88
584.74	1297.88
590.319	1268.88
595.892	1254.88
601.459	1278.88
607.02	1278.88
612.575	1261.88
618.124	1235.88
623.667	1219.88
629.204	1206.88
634.735	1251.88
640.261	1388.88
645.781	1619.88
651.294	1692.88
656.802	1523.88
662.304	1283.88
667.8	1141.88
673.29	1091.88
678.775	1069.88
684.254	1055.88
689.726	1055.88
695.193	1052.88
700.655	1033.88
706.11	1016.88
711.56	1021.88
717.004	1018.88
722.442	1023.88
727.874	1041.88
733.301	1049.88
738.722	1053.88
744.137	1093.88
749.547	1156.88
754.951	1215.88
760.349	1189.88
765.741	1155.88
771.128	1142.88
776.509	1148.88
781.885	1191.88
787.254	1223.88
792.618	1238.88
797.977	1228.88
803.33	1236.88
808.677	1229.88
814.019	1197.88
819.355	1201.88
824.686	1172.88
830.011	1165.88
835.33	1139.88
840.644	1137.88
845.952	1114.88
851.255	1072.88
856.552	1043.88
861.844	1014.88
867.13	1000.88
872.41	965.88
877.686	970.88
882.955	954.88
888.219	937.88
893.478	933.88
898.731	925.88
903.979	914.88
909.221	905.88
914.458	909.88
919.69	906.88
924.916	909.88
930.136	909.88
935.351	912.88
940.561	904.88
945.766	904.88
950.965	896.88
956.158	915.88
961.347	900.88
966.529	894.88
971.707	880.88
976.879	871.88
982.046	869.88
987.208	864.88
992.364	870.88
997.515	862.88
1002.66	873.88
1007.801	891.88
1012.936	896.88
1018.066	896.88
1023.19	918.88
1028.309	921.88
1033.423	941.88
1038.532	950.88
1043.636	951.88
1048.734	945.88
1053.827	948.88
1058.915	933.88
1063.998	935.88
1069.075	943.88
1074.147	927.88
1079.214	940.88
1084.276	925.88
1089.333	940.88
1094.385	928.88
1099.431	907.88
1104.472	911.88
1109.509	911.88
1114.54	873.88
1119.565	855.88
1124.586	847.88
1129.602	837.88
1134.613	843.88
1139.618	842.88
1144.619	839.88
1149.614	832.88
1154.604	853.88
1159.589	857.88
1164.57	877.88
1169.545	868.88
1174.515	871.88
1179.48	875.88
1184.44	855.88
1189.395	852.88
1194.345	873.88
1199.29	855.88
1204.23	863.88
1209.165	848.88
1214.095	860.88
1219.021	868.88
1223.941	865.88
1228.856	878.88
1233.766	870.88
1238.672	854.88
1243.572	876.88
1248.467	844.88
1253.358	837.88
1258.244	812.88
1263.124	799.88
1268	779.88
1272.871	757.88
1277.737	757.88
1282.599	761.88
1287.455	760.88
1292.306	755.88
1297.153	776.88
1301.995	776.88
1306.832	789.88
1311.664	767.88
1316.491	766.88
1321.314	769.88
1326.132	761.88
1330.945	734.88
1335.753	740.88
1340.556	723.88
1345.354	722.88
1350.148	719.88
1354.937	711.88
1359.722	713.88
1364.501	717.88
1369.276	718.88
1374.046	722.88
1378.811	722.88
1383.572	725.88
1388.327	742.88
1393.079	729.88
1397.825	723.88
1402.567	692.88
1407.304	695.88
1412.036	681.88
1416.764	677.88
1421.487	665.88
1426.205	675.88
1430.919	666.88
1435.628	675.88
1440.333	672.88
1445.032	700.88
1449.727	685.88
1454.418	682.88
1459.104	671.88
1463.785	669.88
1468.462	656.88
1473.134	664.88
1477.802	644.88
1482.465	643.88
1487.123	640.88
1491.777	651.88
1496.426	666.88
1501.071	670.88
1505.711	679.88
1510.347	706.88
1514.978	718.88
1519.604	708.88
1524.226	736.88
1528.844	717.88
1533.457	712.88
1538.065	693.88
1542.669	695.88
1547.269	676.88
1551.864	679.88
1556.454	705.88
1561.041	730.88
1565.622	688.88
1570.199	647.88
1574.772	652.88
1579.34	657.88
1583.904	656.88
1588.464	628.88
1593.019	638.88
1597.569	631.88
1602.115	630.88
1606.657	616.88
1611.195	600.88
1615.728	608.88
1620.256	590.88
1624.78	591.88
1629.3	592.88
1633.816	588.88
1638.327	598.88
1642.834	587.88
1647.336	596.88
1651.834	594.88
1656.328	601.88
1660.817	603.88
1665.302	599.88
1669.783	600.88
1674.259	588.88
1678.732	576.88
1683.199	581.88
1687.663	581.88
1692.122	565.88
1696.577	573.88
1701.028	589.88
1705.474	584.88
1709.917	612.88
1714.355	595.88
1718.788	596.88
1723.218	600.88
1727.643	584.88
1732.064	575.88
1736.481	560.88
1740.893	546.88
1745.301	543.88
1749.705	522.88
1754.105	519.88
1758.501	495.88
1762.893	492.88
1767.28	488.88
1771.663	469.88
1776.042	464.88
1780.417	459.88
1784.787	475.88
1789.154	479.88
1793.516	487.88
1797.874	494.88
1802.228	506.88
1806.578	504.88
1810.924	509.88
1815.266	502.88
1819.603	498.88
1823.937	479.88
1828.266	475.88
1832.591	463.88
1836.913	472.88
1841.23	456.88
1845.543	455.88
1849.852	445.88
1854.156	439.88
1858.457	444.88
1862.754	445.88
1867.047	448.88
1871.335	457.88
1875.62	457.88
1879.9	451.88
1884.177	457.88
1888.449	437.88
1892.718	439.88
1896.982	425.88
1901.243	435.88
1905.499	427.88
1909.752	425.88
1914	424.88
1918.245	444.88
1922.485	446.88
1926.722	449.88
1930.954	463.88
1935.183	459.88
1939.408	469.88
1943.628	486.88
1947.845	469.88
1952.058	471.88
1956.267	466.88
1960.472	461.88
1964.673	436.88
1968.87	441.88
1973.063	427.88
1977.252	413.88
1981.438	414.88
1985.619	415.88
1989.797	394.88
1993.971	387.88
1998.14	387.88
2002.306	385.88
2006.469	391.88
2010.627	381.88
2014.781	377.88
2018.932	378.88
2023.078	374.88
2027.221	367.88
2031.36	353.88
2035.495	356.88
2039.627	349.88
2043.754	345.88
2047.878	346.88
2051.998	339.88
2056.114	345.88
2060.226	347.88
2064.334	353.88
2068.439	355.88
2072.54	352.88
2076.637	350.88
2080.73	358.88
2084.82	366.88
2088.906	366.88
2092.988	381.88
2097.066	368.88
2101.14	359.88
2105.211	363.88
2109.278	362.88
2113.342	360.88
2117.401	346.88
2121.457	358.88
2125.509	344.88
2129.558	353.88
2133.602	337.88
2137.643	337.88
2141.681	336.88
2145.714	335.88
2149.744	326.88
2153.77	329.88
2157.793	321.88
2161.812	327.88
2165.827	318.88
2169.838	316.88
2173.846	306.88
2177.851	302.88
2181.851	299.88
2185.848	303.88
2189.841	292.88
2193.831	295.88
2197.817	293.88
2201.799	290.88
2205.778	297.88
2209.753	293.88
2213.725	282.88
2217.693	295.88
2221.657	287.88
2225.618	300.88
2229.575	287.88
2233.529	288.88
2237.479	294.88
2241.425	288.88
2245.368	287.88
2249.307	278.88
2253.243	270.88
2257.175	271.88
2261.104	278.88
2265.029	270.88
2268.95	262.88
2272.868	271.88
2276.783	254.88
2280.694	259.88
2284.601	249.88
2288.505	260.88
2292.405	256.88
2296.302	249.88
2300.195	247.88
2304.085	254.88
2307.971	246.88
2311.854	246.88
2315.734	232.88
2319.609	237.88
2323.482	243.88
2327.351	258.88
2331.216	315.88
2335.078	311.88
2338.937	267.88
2342.792	232.88
2346.643	227.88
2350.492	226.88
2354.336	221.88
2358.178	221.88
2362.015	220.88
2365.85	225.88
2369.681	231.88
2373.508	227.88
2377.333	227.88
2381.153	229.88
2384.971	224.88
2388.785	227.88
2392.595	222.88
2396.402	229.88
2400.206	213.88
2404.007	213.88
2407.804	208.88
2411.597	211.88
2415.388	220.88
2419.174	211.88
2422.958	214.88
2426.738	208.88
2430.515	212.88
2434.289	208.88
2438.059	205.88
2441.825	196.88
2445.589	203.88
2449.349	198.88
2453.106	199.88
2456.859	191.88
2460.61	181.88
2464.356	184.88
2468.1	182.88
2471.84	181.88
2475.577	183.88
2479.311	179.88
2483.041	188.88
2486.768	185.88
2490.492	189.88
2494.213	182.88
2497.93	183.88
2501.644	192.88
2505.355	172.88
2509.062	189.88
2512.766	181.88
2516.467	171.88
2520.165	180.88
2523.859	172.88
2527.551	175.88
2531.239	179.88
2534.923	172.88
2538.605	169.88
2542.283	162.88
2545.958	180.88
2549.63	173.88
2553.299	175.88
2556.964	174.88
2560.626	173.88
2564.285	173.88
2567.941	181.88
2571.594	169.88
2575.243	169.88
2578.89	169.88
2582.533	168.88
2586.173	163.88
2589.809	167.88
2593.443	162.88
2597.073	167.88
2600.701	159.88
2604.325	164.88
2607.946	160.88
2611.564	159.88
2615.178	159.88
2618.79	151.88
2622.398	150.88
2626.004	147.88
2629.606	150.88
2633.205	143.88
2636.801	136.88
2640.394	145.88
2643.983	147.88
2647.57	136.88
2651.153	138.88
2654.734	133.88
2658.311	129.88
2661.885	115.88
2665.456	129.88
2669.025	117.88
2672.589	125.88
2676.151	117.88
2679.71	117.88
2683.266	117.88
2686.819	110.88
2690.368	110.88
2693.915	101.88
2697.458	99.88
2700.999	97.88
2704.536	97.88
2708.071	93.88
2711.602	89.88
2715.13	88.88
2718.656	90.88
2722.178	80.88
2725.697	79.88
2729.214	86.88
2732.727	89.88
2736.237	88.88
2739.744	80.88
2743.249	83.88
2746.75	79.88
2750.248	86.88
2753.743	79.88
2757.236	88.88
2760.725	82.88
2764.211	81.88
2767.695	92.88
2771.175	82.88
2774.652	84.88
2778.127	88.88
2781.598	79.88
2785.067	69.88
2788.532	85.88
2791.995	70.88
2795.455	77.88
2798.911	78.88
2802.365	67.88
2805.816	73.88
2809.264	70.88
2812.709	67.88
2816.151	76.88
2819.59	78.88
2823.026	72.88
2826.46	72.88
2829.89	61.88
2833.318	68.88
2836.742	78.88
2840.164	63.88
2843.583	64.88
2846.999	76.88
2850.412	62.88
2853.822	65.88
2857.229	65.88
2860.634	65.88
2864.035	62.88
2867.434	71.88
2870.83	57.88
2874.223	60.88
2877.613	51.88
2881	45.88
2884.385	52.88
2887.766	52.88
2891.145	48.88
2894.521	51.88
2897.894	46.88
2901.264	43.88
2904.631	43.88
2907.996	33.88
2911.358	40.88
2914.717	35.88
2918.073	29.88
2921.426	32.88
2924.777	26.88
2928.124	34.88
2931.469	32.88
2934.811	31.88
2938.15	25.88
2941.487	28.88
2944.821	30.88
2948.152	12.88
2951.48	15.88
2954.805	26.88
2958.128	18.88
2961.447	19.88
2964.765	14.88
2968.079	18.88
2971.39	13.88
2974.699	21.88
2978.005	13.88
2981.308	19.88
2984.609	16.88
2987.907	23.88
2991.202	15.88
2994.494	18.88
2997.784	16.88
3001.07	17.88
3004.355	13.88
3007.636	12.88
3010.915	10.88
3014.191	13.88
3017.464	7.88
3020.734	11.88
3024.002	4.88
3027.267	11.88
3030.53	10.88
3033.789	6.88
3037.046	5.88
3040.301	5.88
3043.552	-3.12
3046.801	2.88
3050.048	-3.12
3053.291	-0.12
3056.532	-8.12
3059.771	6.88
3063.006	-8.12
3066.239	-4.12
3069.469	-2.12
3072.697	-11.12
3075.922	-9.12
3079.144	-4.12
3082.364	-8.12
3085.581	-8.12
3088.795	-17.12
3092.007	-14.12
3095.216	-12.12
3098.423	-10.12
3101.627	-9.12
3104.828	-13.12
3108.026	-11.12
3111.222	-16.12
3114.416	-4.12
3117.607	-9.12
3120.795	-13.12
3123.98	-16.12
3127.163	-13.12
3130.344	-13.12
3133.521	-13.12
3136.696	-11.12
3139.869	-9.12
3143.039	-17.12
3146.206	-23.12
3149.371	-21.12
3152.533	-18.12
3155.693	-17.12
3158.85	-21.12
3162.005	-20.12
3165.157	-21.12
3168.306	-17.12
3171.453	-22.12
3174.597	-28.12
3177.739	-24.12
3180.878	-30.12
3184.014	-30.12
3187.149	-29.12
3190.28	-31.12
3193.409	-29.12
3196.536	-37.12
3199.659	-29.12
3202.781	-34.12
3205.9	-36.12
3209.016	-42.12
3212.13	-37.12
3215.241	-40.12
3218.35	-35.12
3221.456	-36.12
3224.56	-39.12
3227.661	-46.12
3230.76	-39.12
3233.856	-43.12
3236.95	-45.12
3240.041	-43.12
3243.13	-45.12
3246.216	-38.12
3249.3	-46.12
3252.382	-47.12
3255.46	-38.12
3258.537	-15.12
3261.611	-38.12
3264.682	-41.12
3267.751	-40.12
3270.818	-47.12
3273.882	-44.12
3276.943	-40.12
3280.002	-44.12
3283.059	-50.12
3286.113	-41.12
3289.165	-46.12
3292.214	-47.12
3295.261	-41.12
3298.306	-51.12
3301.348	-49.12
3304.387	-50.12
3307.425	-48.12
3310.459	-54.12
3313.492	-52.12
3316.521	-62.12
3319.549	-51.12
3322.574	-54.12
3325.597	-57.12
3328.617	-56.12
3331.635	-54.12
3334.65	-58.12
3337.663	-61.12
3340.674	-51.12
3343.682	-58.12
3346.688	-57.12
3349.691	-61.12
3352.692	-61.12
3355.691	-64.12
3358.687	-62.12
3361.681	-59.12
3364.673	-63.12
3367.662	-58.12
3370.649	-60.12
3373.633	-59.12
3376.615	-57.12
3379.595	-61.12
3382.572	-60.12
3385.547	-61.12
3388.52	-55.12
3391.49	-58.12
3394.458	-60.12
3397.424	-57.12
3400.387	-56.12
3403.348	-57.12
3406.307	-53.12
3409.263	-61.12
3412.217	-59.12
3415.168	-58.12
3418.118	-61.12
3421.065	-60.12
3424.009	-60.12
3426.951	-60.12
3429.891	-65.12
3432.829	-59.12
3435.764	-62.12
3438.697	-56.12
3441.628	-62.12
3444.557	-60.12
3447.483	-61.12
3450.407	-67.12
3453.328	-62.12
3456.247	-67.12
3459.164	-60.12
3462.079	-65.12
3464.991	-68.12
3467.902	-74.12
3470.809	-67.12
3473.715	-69.12
3476.618	-66.12
3479.519	-65.12
3482.418	-69.12
3485.315	-73.12
3488.209	-66.12
3491.101	-62.12
3493.99	-70.12
3496.878	-71.12
3499.763	-74.12
3502.646	-63.12
3505.527	-77.12
3508.405	-69.12
3511.281	-70.12
3514.155	-67.12
3517.027	-69.12
3519.897	-64.12
3522.764	-64.12
3525.629	-66.12
3528.492	-66.12
3531.352	-64.12
3534.211	-66.12
3537.067	-71.12
3539.921	-69.12
3542.773	-69.12
3545.622	-71.12
3548.469	-73.12
3551.315	-69.12
3554.157	-67.12
3556.998	-74.12
3559.837	-68.12
3562.673	-71.12
3565.507	-73.12
3568.339	-68.12
3571.169	-75.12
3573.996	-73.12
3576.822	-67.12
3579.645	-73.12
3582.466	-68.12
3585.285	-69.12
3588.101	-76.12
3590.916	-76.12
3593.728	-69.12
3596.538	-77.12
3599.346	-77.12
3602.152	-74.12
3604.956	-72.12
3607.757	-80.12
3610.556	-74.12
3613.354	-74.12
3616.149	-82.12
3618.942	-77.12
3621.732	-78.12
3624.521	-76.12
3627.307	-79.12
3630.092	-72.12
3632.874	-79.12
3635.654	-76.12
3638.432	-81.12
3641.208	-80.12
3643.982	-79.12
3646.753	-76.12
3649.523	-83.12
3652.29	-78.12
3655.055	-76.12
3657.818	-78.12
3660.579	-82.12
3663.338	-75.12
3666.095	-81.12
3668.849	-79.12
3671.602	-79.12
3674.352	-79.12
3677.101	-76.12
3679.847	-83.12
3682.591	-79.12
3685.333	-77.12
3688.073	-79.12
3690.811	-73.12
3693.547	-75.12
3696.281	-74.12
3699.013	-75.12
3701.742	-77.12
3704.47	-78.12
3707.195	-72.12
3709.919	-76.12
3712.64	-80.12
3715.359	-75.12
3718.076	-73.12
3720.792	-79.12
3723.505	-82.12
3726.216	-81.12
3728.925	-78.12
3731.632	-78.12
3734.336	-77.12
3737.039	-80.12
3739.74	-75.12
3742.439	-72.12
3745.136	-83.12
3747.83	-80.12
3750.523	-79.12
3753.213	-100.12
3755.902	-80.12
3758.589	-80.12
3761.273	-83.12
3763.956	-81.12
3766.636	-79.12
3769.315	-80.12
3771.991	-80.12
3774.665	-77.12
3777.338	-82.12
3780.008	-84.12
3782.677	-79.12
3785.343	-82.12
3788.007	-86.12
3790.67	-81.12
3793.33	-81.12
3795.989	-73.12
3798.645	-83.12
3801.299	-79.12
3803.952	-78.12
3806.602	-83.12
3809.251	-85.12
3811.897	-80.12
3814.542	-82.12
3817.184	-77.12
3819.825	-79.12
3822.463	-78.12
3825.1	-82.12
3827.735	-82.12
3830.367	-83.12
3832.998	-73.12
3835.627	-74.12
3838.253	-79.12
3840.878	-77.12
3843.501	-79.12
3846.122	-83.12
3848.741	-84.12
3851.358	-78.12
3853.973	-73.12
3856.586	-88.12
3859.197	-75.12
3861.806	-77.12
3864.414	-80.12
3867.019	-73.12
3869.622	-69.12
3872.224	-62.12
3874.823	-44.12
3877.421	-35.12
3880.016	-1.12
3882.61	24.88
3885.202	47.88
3887.792	21.88
3890.38	-21.12
3892.966	-53.12
3895.55	-66.12
3898.132	-77.12
3900.713	-82.12
3903.291	-83.12
3905.868	-81.12
3908.442	-82.12
3911.015	-81.12
3913.586	-84.12
3916.155	-83.12
3918.722	-85.12
3921.287	-83.12
3923.85	-85.12
3926.411	-81.12
3928.971	-87.12
3931.528	-75.12
3934.084	-90.12
3936.638	-87.12
3939.19	-91.12
3941.74	-84.12
3944.288	-85.12
3946.834	-80.12
3949.378	-82.12
3951.921	-77.12
3954.462	-81.12
3957	-83.12
3959.537	-83.12
3962.072	-77.12
3964.606	-78.12
3967.137	-73.12
3969.667	-82.12
3972.194	-81.12
3974.72	-80.12
3977.244	-83.12
3979.766	-85.12
3982.286	-84.12
3984.805	-82.12
3987.321	-80.12
3989.836	-82.12
3992.349	-79.12
3994.86	-82.12
3997.369	-82.12
3999.877	-76.12
4002.382	-78.12
4004.886	-80.12
4007.388	-78.12
4009.888	-84.12
4012.386	-77.12
4014.883	-81.12
4017.377	-80.12
4019.87	-76.12
4022.361	-82.12
4024.85	-81.12
4027.338	-77.12
4029.823	-84.12
4032.307	-79.12
4034.789	-81.12
4037.269	-82.12
4039.747	-81.12
4042.224	-81.12
4044.699	-80.12
4047.172	-76.12
4049.643	-76.12
4052.112	-75.12
4054.58	-82.12
4057.046	-77.12
4059.51	-77.12
4061.972	-79.12
4064.432	-76.12
4066.891	-84.12
4069.348	-80.12
4071.803	-82.12
4074.256	-75.12
4076.708	-80.12
4079.158	-82.12
4081.606	-78.12
4084.052	-82.12
4086.497	-83.12
4088.939	-81.12
4091.38	-84.12
4093.819	-81.12
4096.257	-81.12
4098.693	-86.12
4101.127	-84.12
4103.559	-84.12
4105.989	40.88
4108.418	38.88
4110.845	29.88
4113.27	22.88
4115.694	21.88
4118.115	28.88
4120.535	-77.12
4122.954	-76.12
4125.37	-86.12
4127.785	-81.12
4130.198	-81.12
4132.609	-78.12
4135.019	-85.12
4137.427	-82.12
4139.833	-82.12
4142.237	-84.12