File: Data/Raman/2017-08-29 - Alluminum 2/Aug 29 2017 - Aluminum 2/blank 2_RamanShift_1.txt
Data from blank 2_RamanShift_1.txt Node

Date: Tue Aug 29 12:23:37 IDT 2017
User: aro
Spectrometer: QEPB0276
Trigger mode: 0
Integration Time (sec): 3.000000E1
Scans to average: 1
Electric dark correction enabled: true
Nonlinearity correction enabled: false
Boxcar width: 0
XAxis mode: Raman Shifts
Number of Pixels in Spectrum: 1044
>>>>>Begin Spectral Data<<<<<
160.701	36.12
166.742	50.12
172.777	90.12
178.805	197.12
184.826	471.12
190.841	947.12
196.849	1523.12
202.85	1915.12
208.845	2074.12
214.833	2117.12
220.815	2112.12
226.789	2154.12
232.758	2209.12
238.719	2269.12
244.674	2306.12
250.623	2354.12
256.565	2384.12
262.5	2422.12
268.429	2466.12
274.351	2517.12
280.267	2604.12
286.176	2630.12
292.079	2704.12
297.975	2738.12
303.865	2808.12
309.748	2834.12
315.625	2859.12
321.495	2885.12
327.359	2920.12
333.217	2970.12
339.068	2996.12
344.912	3073.12
350.751	3089.12
356.583	3117.12
362.408	3165.12
368.227	3274.12
374.04	3475.12
379.847	3744.12
385.647	3874.12
391.44	3720.12
397.228	3520.12
403.009	3566.12
408.784	3960.12
414.553	4817.12
420.315	5833.12
426.071	5819.12
431.821	4812.12
437.565	3900.12
443.302	3641.12
449.033	3503.12
454.758	3394.12
460.477	3320.12
466.189	3248.12
471.896	3162.12
477.596	3109.12
483.29	3081.12
488.978	3093.12
494.66	3034.12
500.335	2842.12
506.005	2565.12
511.668	2249.12
517.325	1973.12
522.977	1758.12
528.622	1621.12
534.261	1503.12
539.894	1410.12
545.521	1340.12
551.141	1302.12
556.756	1271.12
562.365	1235.12
567.968	1229.12
573.565	1196.12
579.155	1235.12
584.74	1241.12
590.319	1208.12
595.892	1172.12
601.459	1201.12
607.02	1192.12
612.575	1182.12
618.124	1154.12
623.667	1104.12
629.204	1119.12
634.735	1177.12
640.261	1422.12
645.781	1727.12
651.294	1880.12
656.802	1597.12
662.304	1231.12
667.8	1036.12
673.29	971.12
678.775	942.12
684.254	917.12
689.726	902.12
695.193	881.12
700.655	860.12
706.11	871.12
711.56	857.12
717.004	861.12
722.442	865.12
727.874	865.12
733.301	887.12
738.722	924.12
744.137	979.12
749.547	1078.12
754.951	1129.12
760.349	1100.12
765.741	1021.12
771.128	999.12
776.509	1009.12
781.885	1069.12
787.254	1109.12
792.618	1128.12
797.977	1133.12
803.33	1117.12
808.677	1124.12
814.019	1086.12
819.355	1068.12
824.686	1063.12
830.011	1040.12
835.33	997.12
840.644	968.12
845.952	951.12
851.255	899.12
856.552	853.12
861.844	819.12
867.13	787.12
872.41	765.12
877.686	741.12
882.955	730.12
888.219	728.12
893.478	715.12
898.731	697.12
903.979	697.12
909.221	688.12
914.458	676.12
919.69	688.12
924.916	686.12
930.136	684.12
935.351	676.12
940.561	672.12
945.766	661.12
950.965	676.12
956.158	676.12
961.347	658.12
966.529	660.12
971.707	657.12
976.879	636.12
982.046	633.12
987.208	637.12
992.364	643.12
997.515	637.12
1002.66	636.12
1007.801	658.12
1012.936	666.12
1018.066	667.12
1023.19	694.12
1028.309	690.12
1033.423	708.12
1038.532	725.12
1043.636	735.12
1048.734	730.12
1053.827	748.12
1058.915	736.12
1063.998	739.12
1069.075	723.12
1074.147	731.12
1079.214	729.12
1084.276	717.12
1089.333	707.12
1094.385	698.12
1099.431	689.12
1104.472	670.12
1109.509	657.12
1114.54	625.12
1119.565	614.12
1124.586	610.12
1129.602	594.12
1134.613	603.12
1139.618	602.12
1144.619	591.12
1149.614	600.12
1154.604	622.12
1159.589	621.12
1164.57	637.12
1169.545	640.12
1174.515	631.12
1179.48	639.12
1184.44	626.12
1189.395	643.12
1194.345	650.12
1199.29	635.12
1204.23	636.12
1209.165	625.12
1214.095	636.12
1219.021	646.12
1223.941	641.12
1228.856	648.12
1233.766	652.12
1238.672	628.12
1243.572	629.12
1248.467	619.12
1253.358	600.12
1258.244	576.12
1263.124	570.12
1268	550.12
1272.871	546.12
1277.737	528.12
1282.599	537.12
1287.455	536.12
1292.306	539.12
1297.153	544.12
1301.995	545.12
1306.832	550.12
1311.664	550.12
1316.491	550.12
1321.314	531.12
1326.132	553.12
1330.945	523.12
1335.753	537.12
1340.556	528.12
1345.354	516.12
1350.148	518.12
1354.937	528.12
1359.722	514.12
1364.501	512.12
1369.276	502.12
1374.046	505.12
1378.811	495.12
1383.572	500.12
1388.327	496.12
1393.079	494.12
1397.825	468.12
1402.567	470.12
1407.304	462.12
1412.036	457.12
1416.764	457.12
1421.487	453.12
1426.205	452.12
1430.919	454.12
1435.628	465.12
1440.333	477.12
1445.032	482.12
1449.727	476.12
1454.418	488.12
1459.104	479.12
1463.785	472.12
1468.462	482.12
1473.134	479.12
1477.802	480.12
1482.465	478.12
1487.123	489.12
1491.777	482.12
1496.426	498.12
1501.071	496.12
1505.711	508.12
1510.347	514.12
1514.978	512.12
1519.604	506.12
1524.226	512.12
1528.844	495.12
1533.457	485.12
1538.065	471.12
1542.669	466.12
1547.269	458.12
1551.864	454.12
1556.454	460.12
1561.041	471.12
1565.622	457.12
1570.199	434.12
1574.772	440.12
1579.34	429.12
1583.904	435.12
1588.464	435.12
1593.019	425.12
1597.569	435.12
1602.115	419.12
1606.657	423.12
1611.195	411.12
1615.728	402.12
1620.256	409.12
1624.78	398.12
1629.3	403.12
1633.816	401.12
1638.327	410.12
1642.834	418.12
1647.336	413.12
1651.834	422.12
1656.328	417.12
1660.817	432.12
1665.302	425.12
1669.783	419.12
1674.259	423.12
1678.732	424.12
1683.199	431.12
1687.663	418.12
1692.122	420.12
1696.577	419.12
1701.028	409.12
1705.474	401.12
1709.917	412.12
1714.355	396.12
1718.788	400.12
1723.218	384.12
1727.643	389.12
1732.064	372.12
1736.481	364.12
1740.893	349.12
1745.301	358.12
1749.705	338.12
1754.105	338.12
1758.501	333.12
1762.893	324.12
1767.28	326.12
1771.663	317.12
1776.042	325.12
1780.417	320.12
1784.787	322.12
1789.154	331.12
1793.516	331.12
1797.874	335.12
1802.228	324.12
1806.578	337.12
1810.924	337.12
1815.266	309.12
1819.603	302.12
1823.937	291.12
1828.266	289.12
1832.591	281.12
1836.913	280.12
1841.23	284.12
1845.543	283.12
1849.852	282.12
1854.156	286.12
1858.457	274.12
1862.754	279.12
1867.047	293.12
1871.335	290.12
1875.62	281.12
1879.9	290.12
1884.177	290.12
1888.449	291.12
1892.718	289.12
1896.982	285.12
1901.243	275.12
1905.499	287.12
1909.752	287.12
1914	292.12
1918.245	289.12
1922.485	291.12
1926.722	296.12
1930.954	302.12
1935.183	299.12
1939.408	291.12
1943.628	297.12
1947.845	293.12
1952.058	292.12
1956.267	275.12
1960.472	269.12
1964.673	257.12
1968.87	243.12
1973.063	249.12
1977.252	242.12
1981.438	236.12
1985.619	230.12
1989.797	219.12
1993.971	233.12
1998.14	225.12
2002.306	232.12
2006.469	230.12
2010.627	224.12
2014.781	227.12
2018.932	218.12
2023.078	221.12
2027.221	229.12
2031.36	209.12
2035.495	217.12
2039.627	206.12
2043.754	210.12
2047.878	211.12
2051.998	204.12
2056.114	210.12
2060.226	211.12
2064.334	215.12
2068.439	224.12
2072.54	222.12
2076.637	220.12
2080.73	224.12
2084.82	216.12
2088.906	211.12
2092.988	223.12
2097.066	224.12
2101.14	215.12
2105.211	204.12
2109.278	203.12
2113.342	197.12
2117.401	196.12
2121.457	194.12
2125.509	189.12
2129.558	195.12
2133.602	184.12
2137.643	180.12
2141.681	174.12
2145.714	185.12
2149.744	170.12
2153.77	174.12
2157.793	168.12
2161.812	171.12
2165.827	166.12
2169.838	160.12
2173.846	162.12
2177.851	163.12
2181.851	158.12
2185.848	159.12
2189.841	148.12
2193.831	141.12
2197.817	149.12
2201.799	146.12
2205.778	153.12
2209.753	151.12
2213.725	152.12
2217.693	148.12
2221.657	150.12
2225.618	148.12
2229.575	149.12
2233.529	145.12
2237.479	147.12
2241.425	146.12
2245.368	148.12
2249.307	141.12
2253.243	134.12
2257.175	135.12
2261.104	127.12
2265.029	132.12
2268.95	132.12
2272.868	134.12
2276.783	116.12
2280.694	119.12
2284.601	117.12
2288.505	118.12
2292.405	115.12
2296.302	118.12
2300.195	104.12
2304.085	116.12
2307.971	104.12
2311.854	107.12
2315.734	108.12
2319.609	106.12
2323.482	106.12
2327.351	121.12
2331.216	145.12
2335.078	138.12
2338.937	116.12
2342.792	97.12
2346.643	94.12
2350.492	87.12
2354.336	91.12
2358.178	90.12
2362.015	83.12
2365.85	90.12
2369.681	90.12
2373.508	93.12
2377.333	87.12
2381.153	91.12
2384.971	87.12
2388.785	86.12
2392.595	97.12
2396.402	88.12
2400.206	80.12
2404.007	93.12
2407.804	74.12
2411.597	80.12
2415.388	83.12
2419.174	85.12
2422.958	75.12
2426.738	77.12
2430.515	72.12
2434.289	78.12
2438.059	74.12
2441.825	74.12
2445.589	72.12
2449.349	68.12
2453.106	67.12
2456.859	71.12
2460.61	68.12
2464.356	61.12
2468.1	57.12
2471.84	58.12
2475.577	68.12
2479.311	61.12
2483.041	73.12
2486.768	65.12
2490.492	58.12
2494.213	56.12
2497.93	65.12
2501.644	63.12
2505.355	55.12
2509.062	59.12
2512.766	62.12
2516.467	53.12
2520.165	59.12
2523.859	53.12
2527.551	49.12
2531.239	59.12
2534.923	55.12
2538.605	59.12
2542.283	52.12
2545.958	60.12
2549.63	57.12
2553.299	59.12
2556.964	56.12
2560.626	55.12
2564.285	50.12
2567.941	50.12
2571.594	53.12
2575.243	50.12
2578.89	44.12
2582.533	52.12
2586.173	52.12
2589.809	45.12
2593.443	47.12
2597.073	45.12
2600.701	42.12
2604.325	43.12
2607.946	41.12
2611.564	37.12
2615.178	37.12
2618.79	36.12
2622.398	36.12
2626.004	29.12
2629.606	37.12
2633.205	35.12
2636.801	37.12
2640.394	29.12
2643.983	28.12
2647.57	27.12
2651.153	25.12
2654.734	30.12
2658.311	25.12
2661.885	21.12
2665.456	20.12
2669.025	16.12
2672.589	21.12
2676.151	17.12
2679.71	16.12
2683.266	18.12
2686.819	11.12
2690.368	17.12
2693.915	7.12
2697.458	13.12
2700.999	6.12
2704.536	8.12
2708.071	9.12
2711.602	8.12
2715.13	7.12
2718.656	9.12
2722.178	2.12
2725.697	2.12
2729.214	11.12
2732.727	17.12
2736.237	8.12
2739.744	9.12
2743.249	8.12
2746.75	9.12
2750.248	3.12
2753.743	5.12
2757.236	6.12
2760.725	7.12
2764.211	-0.88
2767.695	7.12
2771.175	4.12
2774.652	2.12
2778.127	10.12
2781.598	1.12
2785.067	-2.88
2788.532	3.12
2791.995	-1.88
2795.455	2.12
2798.911	-0.88
2802.365	0.12
2805.816	13.12
2809.264	-3.88
2812.709	1.12
2816.151	0.12
2819.59	3.12
2823.026	-1.88
2826.46	-0.88
2829.89	0.12
2833.318	-2.88
2836.742	1.12
2840.164	-2.88
2843.583	-5.88
2846.999	-0.88
2850.412	-4.88
2853.822	-5.88
2857.229	-3.88
2860.634	0.12
2864.035	-9.88
2867.434	-6.88
2870.83	-3.88
2874.223	-6.88
2877.613	-16.88
2881	-19.88
2884.385	-14.88
2887.766	-9.88
2891.145	-15.88
2894.521	-8.88
2897.894	-22.88
2901.264	-21.88
2904.631	-19.88
2907.996	-23.88
2911.358	-24.88
2914.717	-20.88
2918.073	-29.88
2921.426	-24.88
2924.777	-24.88
2928.124	-30.88
2931.469	-21.88
2934.811	-24.88
2938.15	-33.88
2941.487	-26.88
2944.821	-28.88
2948.152	-39.88
2951.48	-35.88
2954.805	-23.88
2958.128	-34.88
2961.447	-25.88
2964.765	-36.88
2968.079	-32.88
2971.39	-33.88
2974.699	-35.88
2978.005	-30.88
2981.308	-34.88
2984.609	-38.88
2987.907	-31.88
2991.202	-38.88
2994.494	-32.88
2997.784	-32.88
3001.07	-32.88
3004.355	-32.88
3007.636	-36.88
3010.915	-39.88
3014.191	-42.88
3017.464	-38.88
3020.734	-39.88
3024.002	-48.88
3027.267	-43.88
3030.53	-43.88
3033.789	-37.88
3037.046	-42.88
3040.301	-50.88
3043.552	-54.88
3046.801	-45.88
3050.048	-47.88
3053.291	-49.88
3056.532	-46.88
3059.771	-42.88
3063.006	-49.88
3066.239	-51.88
3069.469	-46.88
3072.697	-56.88
3075.922	-48.88
3079.144	-54.88
3082.364	-51.88
3085.581	-46.88
3088.795	-52.88
3092.007	-55.88
3095.216	-53.88
3098.423	-49.88
3101.627	-50.88
3104.828	-48.88
3108.026	-49.88
3111.222	-47.88
3114.416	-48.88
3117.607	-55.88
3120.795	-47.88
3123.98	-57.88
3127.163	-46.88
3130.344	-52.88
3133.521	-50.88
3136.696	-49.88
3139.869	-50.88
3143.039	-58.88
3146.206	-53.88
3149.371	-49.88
3152.533	-54.88
3155.693	-57.88
3158.85	-53.88
3162.005	-54.88
3165.157	-60.88
3168.306	-49.88
3171.453	-60.88
3174.597	-57.88
3177.739	-54.88
3180.878	-60.88
3184.014	-63.88
3187.149	-58.88
3190.28	-58.88
3193.409	-58.88
3196.536	-67.88
3199.659	-67.88
3202.781	-69.88
3205.9	-66.88
3209.016	-75.88
3212.13	-72.88
3215.241	-67.88
3218.35	-65.88
3221.456	-65.88
3224.56	-71.88
3227.661	-67.88
3230.76	-68.88
3233.856	-80.88
3236.95	-74.88
3240.041	-70.88
3243.13	-65.88
3246.216	-68.88
3249.3	-68.88
3252.382	-67.88
3255.46	-65.88
3258.537	-40.88
3261.611	-69.88
3264.682	-70.88
3267.751	-58.88
3270.818	-70.88
3273.882	-70.88
3276.943	-66.88
3280.002	-63.88
3283.059	-70.88
3286.113	-68.88
3289.165	-63.88
3292.214	-66.88
3295.261	-65.88
3298.306	-65.88
3301.348	-70.88
3304.387	-70.88
3307.425	-69.88
3310.459	-71.88
3313.492	-68.88
3316.521	-80.88
3319.549	-72.88
3322.574	-77.88
3325.597	-79.88
3328.617	-73.88
3331.635	-77.88
3334.65	-70.88
3337.663	-78.88
3340.674	-70.88
3343.682	-74.88
3346.688	-74.88
3349.691	-72.88
3352.692	-77.88
3355.691	-75.88
3358.687	-73.88
3361.681	-70.88
3364.673	-77.88
3367.662	-72.88
3370.649	-79.88
3373.633	-75.88
3376.615	-76.88
3379.595	-75.88
3382.572	-74.88
3385.547	-78.88
3388.52	-70.88
3391.49	-71.88
3394.458	-80.88
3397.424	-73.88
3400.387	-73.88
3403.348	-68.88
3406.307	-74.88
3409.263	-81.88
3412.217	-74.88
3415.168	-76.88
3418.118	-75.88
3421.065	-76.88
3424.009	-80.88
3426.951	-81.88
3429.891	-81.88
3432.829	-78.88
3435.764	-82.88
3438.697	-79.88
3441.628	-78.88
3444.557	-76.88
3447.483	-80.88
3450.407	-83.88
3453.328	-82.88
3456.247	-80.88
3459.164	-76.88
3462.079	-76.88
3464.991	-84.88
3467.902	-82.88
3470.809	-90.88
3473.715	-81.88
3476.618	-81.88
3479.519	-75.88
3482.418	-81.88
3485.315	-83.88
3488.209	-83.88
3491.101	-78.88
3493.99	-79.88
3496.878	-83.88
3499.763	-80.88
3502.646	-76.88
3505.527	-86.88
3508.405	-84.88
3511.281	-85.88
3514.155	-77.88
3517.027	-80.88
3519.897	-74.88
3522.764	-77.88
3525.629	-81.88
3528.492	-80.88
3531.352	-82.88
3534.211	-85.88
3537.067	-81.88
3539.921	-77.88
3542.773	-80.88
3545.622	-81.88
3548.469	-81.88
3551.315	-76.88
3554.157	-77.88
3556.998	-81.88
3559.837	-77.88
3562.673	-77.88
3565.507	-78.88
3568.339	-77.88
3571.169	-83.88
3573.996	-81.88
3576.822	-80.88
3579.645	-87.88
3582.466	-79.88
3585.285	-83.88
3588.101	-91.88
3590.916	-83.88
3593.728	-83.88
3596.538	-89.88
3599.346	-85.88
3602.152	-84.88
3604.956	-86.88
3607.757	-88.88
3610.556	-85.88
3613.354	-81.88
3616.149	-89.88
3618.942	-83.88
3621.732	-87.88
3624.521	-85.88
3627.307	-86.88
3630.092	-88.88
3632.874	-89.88
3635.654	-84.88
3638.432	-85.88
3641.208	-88.88
3643.982	-81.88
3646.753	-87.88
3649.523	-88.88
3652.29	-87.88
3655.055	-86.88
3657.818	-87.88
3660.579	-88.88
3663.338	-84.88
3666.095	-82.88
3668.849	-86.88
3671.602	-84.88
3674.352	-83.88
3677.101	-86.88
3679.847	-92.88
3682.591	-87.88
3685.333	-89.88
3688.073	-88.88
3690.811	-89.88
3693.547	-81.88
3696.281	-83.88
3699.013	-84.88
3701.742	-88.88
3704.47	-89.88
3707.195	-83.88
3709.919	-81.88
3712.64	-87.88
3715.359	-86.88
3718.076	-84.88
3720.792	-88.88
3723.505	-88.88
3726.216	-92.88
3728.925	-84.88
3731.632	-90.88
3734.336	-92.88
3737.039	-91.88
3739.74	-80.88
3742.439	-79.88
3745.136	-88.88
3747.83	-86.88
3750.523	-86.88
3753.213	-102.88
3755.902	-88.88
3758.589	-87.88
3761.273	-92.88
3763.956	-86.88
3766.636	-89.88
3769.315	-90.88
3771.991	-89.88
3774.665	-84.88
3777.338	-88.88
3780.008	-96.88
3782.677	-92.88
3785.343	-92.88
3788.007	-94.88
3790.67	-92.88
3793.33	-88.88
3795.989	-86.88
3798.645	-95.88
3801.299	-92.88
3803.952	-87.88
3806.602	-88.88
3809.251	-97.88
3811.897	-93.88
3814.542	-93.88
3817.184	-83.88
3819.825	-89.88
3822.463	-90.88
3825.1	-93.88
3827.735	-89.88
3830.367	-94.88
3832.998	-86.88
3835.627	-82.88
3838.253	-93.88
3840.878	-91.88
3843.501	-90.88
3846.122	-89.88
3848.741	-86.88
3851.358	-86.88
3853.973	-87.88
3856.586	-90.88
3859.197	-80.88
3861.806	-89.88
3864.414	-83.88
3867.019	-83.88
3869.622	-79.88
3872.224	-64.88
3874.823	-46.88
3877.421	-12.88
3880.016	32.12
3882.61	76.12
3885.202	94.12
3887.792	59.12
3890.38	-1.88
3892.966	-47.88
3895.55	-65.88
3898.132	-79.88
3900.713	-80.88
3903.291	-84.88
3905.868	-87.88
3908.442	-85.88
3911.015	-85.88
3913.586	-90.88
3916.155	-84.88
3918.722	-90.88
3921.287	-90.88
3923.85	-92.88
3926.411	-88.88
3928.971	-91.88
3931.528	-84.88
3934.084	-96.88
3936.638	-86.88
3939.19	-91.88
3941.74	-85.88
3944.288	-93.88
3946.834	-87.88
3949.378	-87.88
3951.921	-86.88
3954.462	-86.88
3957	-85.88
3959.537	-82.88
3962.072	-74.88
3964.606	-87.88
3967.137	-82.88
3969.667	-89.88
3972.194	-86.88
3974.72	-86.88
3977.244	-89.88
3979.766	-88.88
3982.286	-85.88
3984.805	-85.88
3987.321	-86.88
3989.836	-92.88
3992.349	-88.88
3994.86	-91.88
3997.369	-86.88
3999.877	-82.88
4002.382	-86.88
4004.886	-89.88
4007.388	-85.88
4009.888	-89.88
4012.386	-88.88
4014.883	-87.88
4017.377	-82.88
4019.87	-84.88
4022.361	-91.88
4024.85	-92.88
4027.338	-82.88
4029.823	-86.88
4032.307	-82.88
4034.789	-90.88
4037.269	-87.88
4039.747	-90.88
4042.224	-82.88
4044.699	-89.88
4047.172	-84.88
4049.643	-86.88
4052.112	-89.88
4054.58	-92.88
4057.046	-86.88
4059.51	-93.88
4061.972	-87.88
4064.432	-86.88
4066.891	-91.88
4069.348	-86.88
4071.803	-89.88
4074.256	-84.88
4076.708	-93.88
4079.158	-87.88
4081.606	-89.88
4084.052	-96.88
4086.497	-90.88
4088.939	-94.88
4091.38	-92.88
4093.819	-92.88
4096.257	-91.88
4098.693	-95.88
4101.127	-90.88
4103.559	-93.88
4105.989	59.12
4108.418	59.12
4110.845	48.12
4113.27	35.12
4115.694	39.12
4118.115	41.12
4120.535	-92.88
4122.954	-86.88
4125.37	-93.88
4127.785	-91.88
4130.198	-86.88
4132.609	-92.88
4135.019	-91.88
4137.427	-90.88
4139.833	-92.88
4142.237	-97.88