File: Data/Raman/2017-08-29 - Alluminum 2/Aug 29 2017 - Aluminum 2/blank 3_RamanShift_3.txt
Data from blank 3_RamanShift_3.txt Node

Date: Tue Aug 29 12:48:07 IDT 2017
User: aro
Spectrometer: QEPB0276
Trigger mode: 0
Integration Time (sec): 3.000000E1
Scans to average: 1
Electric dark correction enabled: true
Nonlinearity correction enabled: false
Boxcar width: 0
XAxis mode: Raman Shifts
Number of Pixels in Spectrum: 1044
>>>>>Begin Spectral Data<<<<<
160.701	26.5
166.742	35.5
172.777	69.5
178.805	186.5
184.826	434.5
190.841	875.5
196.849	1361.5
202.85	1704.5
208.845	1863.5
214.833	1859.5
220.815	1893.5
226.789	1936.5
232.758	1984.5
238.719	2037.5
244.674	2085.5
250.623	2111.5
256.565	2155.5
262.5	2208.5
268.429	2224.5
274.351	2276.5
280.267	2304.5
286.176	2340.5
292.079	2401.5
297.975	2439.5
303.865	2497.5
309.748	2514.5
315.625	2544.5
321.495	2540.5
327.359	2581.5
333.217	2597.5
339.068	2637.5
344.912	2660.5
350.751	2687.5
356.583	2702.5
362.408	2741.5
368.227	2789.5
374.04	2927.5
379.847	3120.5
385.647	3238.5
391.44	3132.5
397.228	2992.5
403.009	3022.5
408.784	3291.5
414.553	3845.5
420.315	4490.5
426.071	4516.5
431.821	3855.5
437.565	3265.5
443.302	3067.5
449.033	2956.5
454.758	2901.5
460.477	2879.5
466.189	2772.5
471.896	2751.5
477.596	2692.5
483.29	2678.5
488.978	2693.5
494.66	2649.5
500.335	2495.5
506.005	2307.5
511.668	2074.5
517.325	1849.5
522.977	1696.5
528.622	1582.5
534.261	1488.5
539.894	1408.5
545.521	1370.5
551.141	1327.5
556.756	1327.5
562.365	1286.5
567.968	1281.5
573.565	1281.5
579.155	1292.5
584.74	1281.5
590.319	1278.5
595.892	1262.5
601.459	1269.5
607.02	1257.5
612.575	1257.5
618.124	1244.5
623.667	1228.5
629.204	1206.5
634.735	1233.5
640.261	1384.5
645.781	1599.5
651.294	1681.5
656.802	1504.5
662.304	1259.5
667.8	1139.5
673.29	1093.5
678.775	1075.5
684.254	1059.5
689.726	1048.5
695.193	1039.5
700.655	1039.5
706.11	1005.5
711.56	1014.5
717.004	1017.5
722.442	1016.5
727.874	1014.5
733.301	1034.5
738.722	1045.5
744.137	1095.5
749.547	1148.5
754.951	1206.5
760.349	1181.5
765.741	1135.5
771.128	1118.5
776.509	1141.5
781.885	1185.5
787.254	1214.5
792.618	1226.5
797.977	1231.5
803.33	1219.5
808.677	1220.5
814.019	1199.5
819.355	1193.5
824.686	1174.5
830.011	1158.5
835.33	1132.5
840.644	1123.5
845.952	1083.5
851.255	1063.5
856.552	1028.5
861.844	1004.5
867.13	989.5
872.41	972.5
877.686	957.5
882.955	929.5
888.219	931.5
893.478	922.5
898.731	914.5
903.979	926.5
909.221	892.5
914.458	900.5
919.69	905.5
924.916	889.5
930.136	902.5
935.351	905.5
940.561	908.5
945.766	902.5
950.965	899.5
956.158	902.5
961.347	886.5
966.529	893.5
971.707	882.5
976.879	874.5
982.046	849.5
987.208	861.5
992.364	856.5
997.515	862.5
1002.66	883.5
1007.801	882.5
1012.936	897.5
1018.066	890.5
1023.19	928.5
1028.309	904.5
1033.423	919.5
1038.532	937.5
1043.636	956.5
1048.734	938.5
1053.827	940.5
1058.915	924.5
1063.998	947.5
1069.075	929.5
1074.147	929.5
1079.214	920.5
1084.276	929.5
1089.333	919.5
1094.385	920.5
1099.431	920.5
1104.472	904.5
1109.509	899.5
1114.54	870.5
1119.565	854.5
1124.586	844.5
1129.602	900.5
1134.613	846.5
1139.618	831.5
1144.619	830.5
1149.614	826.5
1154.604	839.5
1159.589	863.5
1164.57	852.5
1169.545	869.5
1174.515	876.5
1179.48	854.5
1184.44	872.5
1189.395	858.5
1194.345	869.5
1199.29	850.5
1204.23	860.5
1209.165	851.5
1214.095	861.5
1219.021	866.5
1223.941	874.5
1228.856	872.5
1233.766	868.5
1238.672	863.5
1243.572	851.5
1248.467	861.5
1253.358	832.5
1258.244	811.5
1263.124	793.5
1268	783.5
1272.871	755.5
1277.737	750.5
1282.599	756.5
1287.455	757.5
1292.306	763.5
1297.153	754.5
1301.995	768.5
1306.832	782.5
1311.664	769.5
1316.491	772.5
1321.314	750.5
1326.132	763.5
1330.945	746.5
1335.753	738.5
1340.556	733.5
1345.354	710.5
1350.148	717.5
1354.937	704.5
1359.722	707.5
1364.501	714.5
1369.276	717.5
1374.046	723.5
1378.811	736.5
1383.572	729.5
1388.327	731.5
1393.079	737.5
1397.825	712.5
1402.567	705.5
1407.304	676.5
1412.036	676.5
1416.764	675.5
1421.487	668.5
1426.205	668.5
1430.919	665.5
1435.628	683.5
1440.333	682.5
1445.032	683.5
1449.727	680.5
1454.418	682.5
1459.104	680.5
1463.785	664.5
1468.462	664.5
1473.134	665.5
1477.802	639.5
1482.465	647.5
1487.123	647.5
1491.777	645.5
1496.426	659.5
1501.071	672.5
1505.711	696.5
1510.347	698.5
1514.978	711.5
1519.604	717.5
1524.226	720.5
1528.844	715.5
1533.457	705.5
1538.065	705.5
1542.669	677.5
1547.269	678.5
1551.864	698.5
1556.454	715.5
1561.041	710.5
1565.622	705.5
1570.199	660.5
1574.772	659.5
1579.34	637.5
1583.904	658.5
1588.464	631.5
1593.019	638.5
1597.569	635.5
1602.115	621.5
1606.657	609.5
1611.195	584.5
1615.728	599.5
1620.256	596.5
1624.78	599.5
1629.3	581.5
1633.816	578.5
1638.327	594.5
1642.834	598.5
1647.336	592.5
1651.834	597.5
1656.328	597.5
1660.817	607.5
1665.302	595.5
1669.783	591.5
1674.259	607.5
1678.732	579.5
1683.199	573.5
1687.663	590.5
1692.122	564.5
1696.577	572.5
1701.028	586.5
1705.474	578.5
1709.917	597.5
1714.355	599.5
1718.788	603.5
1723.218	584.5
1727.643	580.5
1732.064	575.5
1736.481	555.5
1740.893	549.5
1745.301	539.5
1749.705	526.5
1754.105	513.5
1758.501	499.5
1762.893	496.5
1767.28	470.5
1771.663	472.5
1776.042	468.5
1780.417	485.5
1784.787	477.5
1789.154	485.5
1793.516	487.5
1797.874	503.5
1802.228	504.5
1806.578	516.5
1810.924	518.5
1815.266	513.5
1819.603	492.5
1823.937	486.5
1828.266	475.5
1832.591	463.5
1836.913	465.5
1841.23	451.5
1845.543	455.5
1849.852	446.5
1854.156	457.5
1858.457	439.5
1862.754	442.5
1867.047	447.5
1871.335	448.5
1875.62	448.5
1879.9	452.5
1884.177	448.5
1888.449	436.5
1892.718	442.5
1896.982	434.5
1901.243	428.5
1905.499	429.5
1909.752	438.5
1914	430.5
1918.245	449.5
1922.485	449.5
1926.722	457.5
1930.954	458.5
1935.183	464.5
1939.408	479.5
1943.628	479.5
1947.845	479.5
1952.058	472.5
1956.267	454.5
1960.472	462.5
1964.673	440.5
1968.87	429.5
1973.063	427.5
1977.252	413.5
1981.438	418.5
1985.619	402.5
1989.797	394.5
1993.971	396.5
1998.14	383.5
2002.306	393.5
2006.469	390.5
2010.627	386.5
2014.781	382.5
2018.932	364.5
2023.078	380.5
2027.221	377.5
2031.36	356.5
2035.495	361.5
2039.627	356.5
2043.754	352.5
2047.878	346.5
2051.998	343.5
2056.114	344.5
2060.226	348.5
2064.334	348.5
2068.439	360.5
2072.54	357.5
2076.637	365.5
2080.73	367.5
2084.82	368.5
2088.906	366.5
2092.988	367.5
2097.066	383.5
2101.14	357.5
2105.211	365.5
2109.278	363.5
2113.342	360.5
2117.401	359.5
2121.457	345.5
2125.509	350.5
2129.558	345.5
2133.602	343.5
2137.643	340.5
2141.681	334.5
2145.714	334.5
2149.744	335.5
2153.77	328.5
2157.793	331.5
2161.812	324.5
2165.827	313.5
2169.838	317.5
2173.846	312.5
2177.851	307.5
2181.851	301.5
2185.848	298.5
2189.841	299.5
2193.831	297.5
2197.817	297.5
2201.799	296.5
2205.778	295.5
2209.753	297.5
2213.725	294.5
2217.693	287.5
2221.657	290.5
2225.618	299.5
2229.575	293.5
2233.529	294.5
2237.479	290.5
2241.425	294.5
2245.368	292.5
2249.307	289.5
2253.243	281.5
2257.175	277.5
2261.104	273.5
2265.029	274.5
2268.95	269.5
2272.868	271.5
2276.783	259.5
2280.694	258.5
2284.601	258.5
2288.505	253.5
2292.405	265.5
2296.302	253.5
2300.195	240.5
2304.085	250.5
2307.971	238.5
2311.854	236.5
2315.734	240.5
2319.609	232.5
2323.482	243.5
2327.351	269.5
2331.216	305.5
2335.078	309.5
2338.937	276.5
2342.792	237.5
2346.643	234.5
2350.492	228.5
2354.336	229.5
2358.178	227.5
2362.015	223.5
2365.85	227.5
2369.681	229.5
2373.508	237.5
2377.333	234.5
2381.153	236.5
2384.971	229.5
2388.785	225.5
2392.595	227.5
2396.402	218.5
2400.206	221.5
2404.007	225.5
2407.804	216.5
2411.597	228.5
2415.388	221.5
2419.174	215.5
2422.958	219.5
2426.738	219.5
2430.515	214.5
2434.289	217.5
2438.059	205.5
2441.825	207.5
2445.589	206.5
2449.349	192.5
2453.106	200.5
2456.859	203.5
2460.61	200.5
2464.356	189.5
2468.1	189.5
2471.84	195.5
2475.577	188.5
2479.311	191.5
2483.041	187.5
2486.768	190.5
2490.492	185.5
2494.213	189.5
2497.93	188.5
2501.644	185.5
2505.355	179.5
2509.062	184.5
2512.766	178.5
2516.467	171.5
2520.165	185.5
2523.859	184.5
2527.551	180.5
2531.239	182.5
2534.923	183.5
2538.605	184.5
2542.283	181.5
2545.958	178.5
2549.63	174.5
2553.299	182.5
2556.964	172.5
2560.626	180.5
2564.285	172.5
2567.941	176.5
2571.594	174.5
2575.243	170.5
2578.89	174.5
2582.533	167.5
2586.173	174.5
2589.809	173.5
2593.443	175.5
2597.073	158.5
2600.701	164.5
2604.325	162.5
2607.946	167.5
2611.564	161.5
2615.178	160.5
2618.79	149.5
2622.398	153.5
2626.004	150.5
2629.606	148.5
2633.205	147.5
2636.801	150.5
2640.394	139.5
2643.983	147.5
2647.57	132.5
2651.153	129.5
2654.734	134.5
2658.311	135.5
2661.885	121.5
2665.456	128.5
2669.025	117.5
2672.589	121.5
2676.151	118.5
2679.71	119.5
2683.266	116.5
2686.819	112.5
2690.368	111.5
2693.915	106.5
2697.458	105.5
2700.999	106.5
2704.536	92.5
2708.071	95.5
2711.602	89.5
2715.13	92.5
2718.656	90.5
2722.178	81.5
2725.697	84.5
2729.214	84.5
2732.727	91.5
2736.237	92.5
2739.744	81.5
2743.249	90.5
2746.75	86.5
2750.248	85.5
2753.743	85.5
2757.236	94.5
2760.725	96.5
2764.211	87.5
2767.695	89.5
2771.175	84.5
2774.652	90.5
2778.127	92.5
2781.598	76.5
2785.067	85.5
2788.532	84.5
2791.995	83.5
2795.455	86.5
2798.911	83.5
2802.365	71.5
2805.816	87.5
2809.264	68.5
2812.709	75.5
2816.151	75.5
2819.59	89.5
2823.026	77.5
2826.46	76.5
2829.89	72.5
2833.318	75.5
2836.742	77.5
2840.164	69.5
2843.583	72.5
2846.999	73.5
2850.412	71.5
2853.822	71.5
2857.229	77.5
2860.634	77.5
2864.035	71.5
2867.434	72.5
2870.83	74.5
2874.223	67.5
2877.613	61.5
2881	59.5
2884.385	63.5
2887.766	56.5
2891.145	54.5
2894.521	62.5
2897.894	48.5
2901.264	53.5
2904.631	51.5
2907.996	46.5
2911.358	47.5
2914.717	43.5
2918.073	42.5
2921.426	39.5
2924.777	38.5
2928.124	39.5
2931.469	36.5
2934.811	43.5
2938.15	33.5
2941.487	38.5
2944.821	33.5
2948.152	25.5
2951.48	29.5
2954.805	29.5
2958.128	25.5
2961.447	28.5
2964.765	25.5
2968.079	24.5
2971.39	19.5
2974.699	20.5
2978.005	20.5
2981.308	18.5
2984.609	14.5
2987.907	23.5
2991.202	21.5
2994.494	28.5
2997.784	22.5
3001.07	26.5
3004.355	23.5
3007.636	24.5
3010.915	20.5
3014.191	15.5
3017.464	13.5
3020.734	19.5
3024.002	12.5
3027.267	10.5
3030.53	11.5
3033.789	21.5
3037.046	9.5
3040.301	6.5
3043.552	4.5
3046.801	3.5
3050.048	4.5
3053.291	1.5
3056.532	-0.5
3059.771	3.5
3063.006	-8.5
3066.239	-4.5
3069.469	2.5
3072.697	-14.5
3075.922	-5.5
3079.144	-9.5
3082.364	-8.5
3085.581	-8.5
3088.795	-9.5
3092.007	-14.5
3095.216	-11.5
3098.423	-10.5
3101.627	-7.5
3104.828	-6.5
3108.026	-10.5
3111.222	-14.5
3114.416	-8.5
3117.607	-12.5
3120.795	-8.5
3123.98	-12.5
3127.163	-8.5
3130.344	-16.5
3133.521	-17.5
3136.696	-9.5
3139.869	-15.5
3143.039	-14.5
3146.206	-19.5
3149.371	-16.5
3152.533	-15.5
3155.693	-21.5
3158.85	-21.5
3162.005	-26.5
3165.157	-21.5
3168.306	-19.5
3171.453	-22.5
3174.597	-24.5
3177.739	-20.5
3180.878	-25.5
3184.014	-32.5
3187.149	-28.5
3190.28	-25.5
3193.409	-25.5
3196.536	-32.5
3199.659	-29.5
3202.781	-29.5
3205.9	-35.5
3209.016	-41.5
3212.13	-37.5
3215.241	-37.5
3218.35	-35.5
3221.456	-31.5
3224.56	-33.5
3227.661	-39.5
3230.76	-40.5
3233.856	-40.5
3236.95	-40.5
3240.041	-37.5
3243.13	-42.5
3246.216	-39.5
3249.3	-47.5
3252.382	-34.5
3255.46	-35.5
3258.537	-9.5
3261.611	-37.5
3264.682	-39.5
3267.751	-31.5
3270.818	-39.5
3273.882	-41.5
3276.943	-40.5
3280.002	-36.5
3283.059	-47.5
3286.113	-38.5
3289.165	-38.5
3292.214	-40.5
3295.261	-44.5
3298.306	-38.5
3301.348	-44.5
3304.387	-46.5
3307.425	-41.5
3310.459	-51.5
3313.492	-47.5
3316.521	-50.5
3319.549	-45.5
3322.574	-51.5
3325.597	-50.5
3328.617	-47.5
3331.635	-55.5
3334.65	-40.5
3337.663	-57.5
3340.674	-45.5
3343.682	-49.5
3346.688	-49.5
3349.691	-51.5
3352.692	-50.5
3355.691	-53.5
3358.687	-49.5
3361.681	-50.5
3364.673	-51.5
3367.662	-51.5
3370.649	-53.5
3373.633	-47.5
3376.615	-42.5
3379.595	-56.5
3382.572	-49.5
3385.547	-50.5
3388.52	-44.5
3391.49	-51.5
3394.458	-54.5
3397.424	-44.5
3400.387	-52.5
3403.348	-50.5
3406.307	-50.5
3409.263	-55.5
3412.217	-51.5
3415.168	-54.5
3418.118	-50.5
3421.065	-51.5
3424.009	-51.5
3426.951	-57.5
3429.891	-54.5
3432.829	-56.5
3435.764	-56.5
3438.697	-52.5
3441.628	-56.5
3444.557	-51.5
3447.483	-58.5
3450.407	-63.5
3453.328	-55.5
3456.247	-58.5
3459.164	-53.5
3462.079	-55.5
3464.991	-58.5
3467.902	-58.5
3470.809	-61.5
3473.715	-61.5
3476.618	-57.5
3479.519	-50.5
3482.418	-59.5
3485.315	-62.5
3488.209	-63.5
3491.101	-60.5
3493.99	-62.5
3496.878	-68.5
3499.763	-65.5
3502.646	-62.5
3505.527	-69.5
3508.405	-66.5
3511.281	-64.5
3514.155	-59.5
3517.027	-62.5
3519.897	-64.5
3522.764	-60.5
3525.629	-73.5
3528.492	-59.5
3531.352	-63.5
3534.211	-67.5
3537.067	-66.5
3539.921	-64.5
3542.773	-70.5
3545.622	-67.5
3548.469	-64.5
3551.315	-60.5
3554.157	-65.5
3556.998	-69.5
3559.837	-66.5
3562.673	-63.5
3565.507	-72.5
3568.339	-65.5
3571.169	-67.5
3573.996	-69.5
3576.822	-64.5
3579.645	-69.5
3582.466	-60.5
3585.285	-69.5
3588.101	-72.5
3590.916	-68.5
3593.728	-66.5
3596.538	-75.5
3599.346	-75.5
3602.152	-74.5
3604.956	-69.5
3607.757	-73.5
3610.556	-73.5
3613.354	-71.5
3616.149	-74.5
3618.942	-63.5
3621.732	-73.5
3624.521	-68.5
3627.307	-72.5
3630.092	-69.5
3632.874	-71.5
3635.654	-68.5
3638.432	-67.5
3641.208	-71.5
3643.982	-69.5
3646.753	-71.5
3649.523	-73.5
3652.29	-71.5
3655.055	-70.5
3657.818	-70.5
3660.579	-68.5
3663.338	-71.5
3666.095	-67.5
3668.849	-72.5
3671.602	-72.5
3674.352	-71.5
3677.101	-62.5
3679.847	-76.5
3682.591	-70.5
3685.333	-69.5
3688.073	-69.5
3690.811	-70.5
3693.547	-65.5
3696.281	-70.5
3699.013	-72.5
3701.742	-71.5
3704.47	-74.5
3707.195	-69.5
3709.919	-71.5
3712.64	-73.5
3715.359	-71.5
3718.076	-67.5
3720.792	-69.5
3723.505	-72.5
3726.216	-77.5
3728.925	-70.5
3731.632	-71.5
3734.336	-72.5
3737.039	-75.5
3739.74	-72.5
3742.439	-69.5
3745.136	-72.5
3747.83	-73.5
3750.523	-71.5
3753.213	-92.5
3755.902	-71.5
3758.589	-71.5
3761.273	-72.5
3763.956	-73.5
3766.636	-70.5
3769.315	-70.5
3771.991	-73.5
3774.665	-71.5
3777.338	-68.5
3780.008	-80.5
3782.677	-73.5
3785.343	-74.5
3788.007	-80.5
3790.67	-75.5
3793.33	-70.5
3795.989	-72.5
3798.645	-77.5
3801.299	-74.5
3803.952	-77.5
3806.602	-77.5
3809.251	-80.5
3811.897	-75.5
3814.542	-76.5
3817.184	-76.5
3819.825	-78.5
3822.463	-78.5
3825.1	-75.5
3827.735	-77.5
3830.367	-77.5
3832.998	-73.5
3835.627	-73.5
3838.253	-79.5
3840.878	-69.5
3843.501	-70.5
3846.122	-80.5
3848.741	-79.5
3851.358	-72.5
3853.973	-73.5
3856.586	-79.5
3859.197	-71.5
3861.806	-79.5
3864.414	-75.5
3867.019	-68.5
3869.622	-64.5
3872.224	-58.5
3874.823	-38.5
3877.421	-25.5
3880.016	11.5
3882.61	35.5
3885.202	48.5
3887.792	28.5
3890.38	-11.5
3892.966	-36.5
3895.55	-59.5
3898.132	-75.5
3900.713	-75.5
3903.291	-74.5
3905.868	-71.5
3908.442	-77.5
3911.015	-77.5
3913.586	-76.5
3916.155	-74.5
3918.722	-72.5
3921.287	-73.5
3923.85	-80.5
3926.411	-76.5
3928.971	-78.5
3931.528	-70.5
3934.084	-80.5
3936.638	-77.5
3939.19	-77.5
3941.74	-74.5
3944.288	-76.5
3946.834	-75.5
3949.378	-76.5
3951.921	-74.5
3954.462	-77.5
3957	-74.5
3959.537	-65.5
3962.072	-65.5
3964.606	-71.5
3967.137	-74.5
3969.667	-71.5
3972.194	-72.5
3974.72	-78.5
3977.244	-71.5
3979.766	-80.5
3982.286	-73.5
3984.805	-72.5
3987.321	-72.5
3989.836	-74.5
3992.349	-71.5
3994.86	-77.5
3997.369	-71.5
3999.877	-70.5
4002.382	-71.5
4004.886	-73.5
4007.388	-71.5
4009.888	-68.5
4012.386	-73.5
4014.883	-77.5
4017.377	-69.5
4019.87	-66.5
4022.361	-72.5
4024.85	-73.5
4027.338	-69.5
4029.823	-73.5
4032.307	-73.5
4034.789	-76.5
4037.269	-74.5
4039.747	-74.5
4042.224	-75.5
4044.699	-63.5
4047.172	-75.5
4049.643	-67.5
4052.112	-69.5
4054.58	-79.5
4057.046	-72.5
4059.51	-76.5
4061.972	-74.5
4064.432	-67.5
4066.891	-76.5
4069.348	-73.5
4071.803	-76.5
4074.256	-70.5
4076.708	-78.5
4079.158	-75.5
4081.606	-76.5
4084.052	-78.5
4086.497	-81.5
4088.939	-77.5
4091.38	-76.5
4093.819	-76.5
4096.257	-77.5
4098.693	-78.5
4101.127	-78.5
4103.559	-80.5
4105.989	49.5
4108.418	42.5
4110.845	37.5
4113.27	31.5
4115.694	28.5
4118.115	28.5
4120.535	-79.5
4122.954	-70.5
4125.37	-80.5
4127.785	-74.5
4130.198	-74.5
4132.609	-82.5
4135.019	-79.5
4137.427	-76.5
4139.833	-79.5
4142.237	-82.5