File: Data/Raman/2017-08-29 - Alluminum 2/Aug 29 2017 - Aluminum 2/blank 2_RamanShift_3.txt
Data from blank 2_RamanShift_3.txt Node

Date: Tue Aug 29 12:24:37 IDT 2017
User: aro
Spectrometer: QEPB0276
Trigger mode: 0
Integration Time (sec): 3.000000E1
Scans to average: 1
Electric dark correction enabled: true
Nonlinearity correction enabled: false
Boxcar width: 0
XAxis mode: Raman Shifts
Number of Pixels in Spectrum: 1044
>>>>>Begin Spectral Data<<<<<
160.701	45.88
166.742	52.88
172.777	91.88
178.805	198.88
184.826	465.88
190.841	953.88
196.849	1524.88
202.85	1914.88
208.845	2101.88
214.833	2135.88
220.815	2118.88
226.789	2183.88
232.758	2236.88
238.719	2287.88
244.674	2335.88
250.623	2387.88
256.565	2413.88
262.5	2464.88
268.429	2497.88
274.351	2547.88
280.267	2629.88
286.176	2667.88
292.079	2760.88
297.975	2781.88
303.865	2801.88
309.748	2894.88
315.625	2906.88
321.495	2928.88
327.359	2959.88
333.217	3006.88
339.068	3041.88
344.912	3102.88
350.751	3101.88
356.583	3149.88
362.408	3227.88
368.227	3313.88
374.04	3500.88
379.847	3775.88
385.647	3941.88
391.44	3760.88
397.228	3552.88
403.009	3621.88
408.784	4022.88
414.553	4893.88
420.315	5899.88
426.071	5917.88
431.821	4905.88
437.565	3956.88
443.302	3668.88
449.033	3523.88
454.758	3450.88
460.477	3374.88
466.189	3256.88
471.896	3207.88
477.596	3146.88
483.29	3149.88
488.978	3136.88
494.66	3070.88
500.335	2902.88
506.005	2595.88
511.668	2308.88
517.325	2011.88
522.977	1759.88
528.622	1613.88
534.261	1495.88
539.894	1418.88
545.521	1343.88
551.141	1302.88
556.756	1264.88
562.365	1227.88
567.968	1226.88
573.565	1220.88
579.155	1243.88
584.74	1231.88
590.319	1220.88
595.892	1172.88
601.459	1189.88
607.02	1221.88
612.575	1188.88
618.124	1158.88
623.667	1117.88
629.204	1111.88
634.735	1210.88
640.261	1427.88
645.781	1745.88
651.294	1877.88
656.802	1629.88
662.304	1245.88
667.8	1035.88
673.29	974.88
678.775	941.88
684.254	931.88
689.726	913.88
695.193	878.88
700.655	865.88
706.11	866.88
711.56	864.88
717.004	862.88
722.442	865.88
727.874	865.88
733.301	889.88
738.722	925.88
744.137	1005.88
749.547	1077.88
754.951	1139.88
760.349	1103.88
765.741	1039.88
771.128	1015.88
776.509	1018.88
781.885	1077.88
787.254	1128.88
792.618	1147.88
797.977	1137.88
803.33	1123.88
808.677	1121.88
814.019	1097.88
819.355	1080.88
824.686	1059.88
830.011	1036.88
835.33	1004.88
840.644	977.88
845.952	945.88
851.255	909.88
856.552	858.88
861.844	819.88
867.13	788.88
872.41	760.88
877.686	752.88
882.955	731.88
888.219	713.88
893.478	708.88
898.731	695.88
903.979	701.88
909.221	684.88
914.458	668.88
919.69	679.88
924.916	683.88
930.136	683.88
935.351	671.88
940.561	674.88
945.766	674.88
950.965	678.88
956.158	659.88
961.347	655.88
966.529	652.88
971.707	659.88
976.879	637.88
982.046	632.88
987.208	634.88
992.364	636.88
997.515	646.88
1002.66	645.88
1007.801	657.88
1012.936	664.88
1018.066	672.88
1023.19	689.88
1028.309	682.88
1033.423	714.88
1038.532	719.88
1043.636	723.88
1048.734	744.88
1053.827	737.88
1058.915	743.88
1063.998	745.88
1069.075	737.88
1074.147	725.88
1079.214	732.88
1084.276	730.88
1089.333	717.88
1094.385	703.88
1099.431	680.88
1104.472	679.88
1109.509	661.88
1114.54	647.88
1119.565	623.88
1124.586	609.88
1129.602	603.88
1134.613	612.88
1139.618	605.88
1144.619	604.88
1149.614	608.88
1154.604	628.88
1159.589	627.88
1164.57	634.88
1169.545	647.88
1174.515	637.88
1179.48	644.88
1184.44	642.88
1189.395	641.88
1194.345	652.88
1199.29	648.88
1204.23	651.88
1209.165	645.88
1214.095	630.88
1219.021	641.88
1223.941	653.88
1228.856	650.88
1233.766	635.88
1238.672	628.88
1243.572	639.88
1248.467	607.88
1253.358	610.88
1258.244	581.88
1263.124	573.88
1268	553.88
1272.871	539.88
1277.737	528.88
1282.599	535.88
1287.455	532.88
1292.306	545.88
1297.153	544.88
1301.995	542.88
1306.832	551.88
1311.664	550.88
1316.491	552.88
1321.314	534.88
1326.132	549.88
1330.945	536.88
1335.753	531.88
1340.556	530.88
1345.354	519.88
1350.148	525.88
1354.937	529.88
1359.722	526.88
1364.501	524.88
1369.276	518.88
1374.046	494.88
1378.811	500.88
1383.572	510.88
1388.327	490.88
1393.079	504.88
1397.825	473.88
1402.567	469.88
1407.304	467.88
1412.036	474.88
1416.764	450.88
1421.487	464.88
1426.205	459.88
1430.919	455.88
1435.628	478.88
1440.333	473.88
1445.032	481.88
1449.727	484.88
1454.418	481.88
1459.104	481.88
1463.785	485.88
1468.462	484.88
1473.134	483.88
1477.802	481.88
1482.465	480.88
1487.123	491.88
1491.777	484.88
1496.426	484.88
1501.071	498.88
1505.711	509.88
1510.347	514.88
1514.978	528.88
1519.604	526.88
1524.226	510.88
1528.844	499.88
1533.457	479.88
1538.065	470.88
1542.669	469.88
1547.269	466.88
1551.864	460.88
1556.454	463.88
1561.041	472.88
1565.622	462.88
1570.199	436.88
1574.772	438.88
1579.34	440.88
1583.904	448.88
1588.464	441.88
1593.019	443.88
1597.569	437.88
1602.115	412.88
1606.657	420.88
1611.195	421.88
1615.728	413.88
1620.256	414.88
1624.78	402.88
1629.3	412.88
1633.816	406.88
1638.327	416.88
1642.834	416.88
1647.336	421.88
1651.834	421.88
1656.328	413.88
1660.817	431.88
1665.302	426.88
1669.783	419.88
1674.259	432.88
1678.732	423.88
1683.199	421.88
1687.663	429.88
1692.122	415.88
1696.577	414.88
1701.028	410.88
1705.474	412.88
1709.917	407.88
1714.355	404.88
1718.788	397.88
1723.218	387.88
1727.643	377.88
1732.064	374.88
1736.481	365.88
1740.893	358.88
1745.301	347.88
1749.705	338.88
1754.105	337.88
1758.501	332.88
1762.893	309.88
1767.28	322.88
1771.663	326.88
1776.042	329.88
1780.417	323.88
1784.787	323.88
1789.154	341.88
1793.516	341.88
1797.874	337.88
1802.228	332.88
1806.578	327.88
1810.924	319.88
1815.266	319.88
1819.603	304.88
1823.937	297.88
1828.266	288.88
1832.591	286.88
1836.913	292.88
1841.23	288.88
1845.543	287.88
1849.852	281.88
1854.156	285.88
1858.457	279.88
1862.754	285.88
1867.047	280.88
1871.335	281.88
1875.62	292.88
1879.9	282.88
1884.177	289.88
1888.449	286.88
1892.718	290.88
1896.982	295.88
1901.243	281.88
1905.499	290.88
1909.752	282.88
1914	291.88
1918.245	289.88
1922.485	296.88
1926.722	286.88
1930.954	293.88
1935.183	290.88
1939.408	289.88
1943.628	285.88
1947.845	286.88
1952.058	283.88
1956.267	279.88
1960.472	272.88
1964.673	271.88
1968.87	249.88
1973.063	246.88
1977.252	240.88
1981.438	237.88
1985.619	233.88
1989.797	222.88
1993.971	232.88
1998.14	227.88
2002.306	229.88
2006.469	222.88
2010.627	226.88
2014.781	224.88
2018.932	221.88
2023.078	214.88
2027.221	214.88
2031.36	211.88
2035.495	211.88
2039.627	213.88
2043.754	209.88
2047.878	203.88
2051.998	204.88
2056.114	213.88
2060.226	211.88
2064.334	217.88
2068.439	208.88
2072.54	218.88
2076.637	222.88
2080.73	222.88
2084.82	217.88
2088.906	228.88
2092.988	222.88
2097.066	217.88
2101.14	216.88
2105.211	219.88
2109.278	205.88
2113.342	212.88
2117.401	203.88
2121.457	198.88
2125.509	186.88
2129.558	185.88
2133.602	185.88
2137.643	178.88
2141.681	182.88
2145.714	176.88
2149.744	170.88
2153.77	182.88
2157.793	172.88
2161.812	161.88
2165.827	169.88
2169.838	165.88
2173.846	163.88
2177.851	156.88
2181.851	153.88
2185.848	155.88
2189.841	144.88
2193.831	147.88
2197.817	153.88
2201.799	146.88
2205.778	148.88
2209.753	143.88
2213.725	140.88
2217.693	140.88
2221.657	148.88
2225.618	149.88
2229.575	147.88
2233.529	148.88
2237.479	148.88
2241.425	133.88
2245.368	141.88
2249.307	137.88
2253.243	129.88
2257.175	127.88
2261.104	130.88
2265.029	127.88
2268.95	125.88
2272.868	128.88
2276.783	122.88
2280.694	115.88
2284.601	109.88
2288.505	119.88
2292.405	121.88
2296.302	110.88
2300.195	104.88
2304.085	106.88
2307.971	107.88
2311.854	96.88
2315.734	101.88
2319.609	99.88
2323.482	96.88
2327.351	114.88
2331.216	133.88
2335.078	146.88
2338.937	109.88
2342.792	88.88
2346.643	92.88
2350.492	90.88
2354.336	94.88
2358.178	90.88
2362.015	88.88
2365.85	92.88
2369.681	85.88
2373.508	99.88
2377.333	87.88
2381.153	85.88
2384.971	85.88
2388.785	88.88
2392.595	86.88
2396.402	86.88
2400.206	84.88
2404.007	82.88
2407.804	74.88
2411.597	87.88
2415.388	91.88
2419.174	82.88
2422.958	79.88
2426.738	85.88
2430.515	76.88
2434.289	78.88
2438.059	74.88
2441.825	69.88
2445.589	73.88
2449.349	69.88
2453.106	57.88
2456.859	66.88
2460.61	63.88
2464.356	55.88
2468.1	62.88
2471.84	62.88
2475.577	52.88
2479.311	62.88
2483.041	67.88
2486.768	54.88
2490.492	57.88
2494.213	59.88
2497.93	58.88
2501.644	63.88
2505.355	55.88
2509.062	63.88
2512.766	56.88
2516.467	56.88
2520.165	51.88
2523.859	52.88
2527.551	54.88
2531.239	51.88
2534.923	55.88
2538.605	52.88
2542.283	42.88
2545.958	49.88
2549.63	51.88
2553.299	49.88
2556.964	46.88
2560.626	48.88
2564.285	50.88
2567.941	48.88
2571.594	46.88
2575.243	47.88
2578.89	48.88
2582.533	50.88
2586.173	49.88
2589.809	39.88
2593.443	46.88
2597.073	45.88
2600.701	42.88
2604.325	40.88
2607.946	40.88
2611.564	39.88
2615.178	37.88
2618.79	36.88
2622.398	30.88
2626.004	32.88
2629.606	34.88
2633.205	28.88
2636.801	34.88
2640.394	32.88
2643.983	27.88
2647.57	26.88
2651.153	26.88
2654.734	28.88
2658.311	25.88
2661.885	20.88
2665.456	23.88
2669.025	15.88
2672.589	23.88
2676.151	19.88
2679.71	12.88
2683.266	18.88
2686.819	14.88
2690.368	18.88
2693.915	12.88
2697.458	13.88
2700.999	10.88
2704.536	9.88
2708.071	9.88
2711.602	4.88
2715.13	11.88
2718.656	-1.12
2722.178	5.88
2725.697	0.88
2729.214	4.88
2732.727	7.88
2736.237	6.88
2739.744	6.88
2743.249	7.88
2746.75	6.88
2750.248	4.88
2753.743	0.88
2757.236	12.88
2760.725	2.88
2764.211	-2.12
2767.695	0.88
2771.175	-3.12
2774.652	3.88
2778.127	2.88
2781.598	-2.12
2785.067	-7.12
2788.532	5.88
2791.995	-4.12
2795.455	2.88
2798.911	2.88
2802.365	-9.12
2805.816	1.88
2809.264	-7.12
2812.709	-9.12
2816.151	-3.12
2819.59	4.88
2823.026	1.88
2826.46	-2.12
2829.89	-6.12
2833.318	-5.12
2836.742	1.88
2840.164	-6.12
2843.583	-4.12
2846.999	-2.12
2850.412	-8.12
2853.822	-2.12
2857.229	0.88
2860.634	-4.12
2864.035	-12.12
2867.434	-9.12
2870.83	-3.12
2874.223	-13.12
2877.613	-17.12
2881	-23.12
2884.385	-18.12
2887.766	-18.12
2891.145	-16.12
2894.521	-17.12
2897.894	-24.12
2901.264	-21.12
2904.631	-24.12
2907.996	-25.12
2911.358	-25.12
2914.717	-21.12
2918.073	-29.12
2921.426	-32.12
2924.777	-24.12
2928.124	-29.12
2931.469	-31.12
2934.811	-28.12
2938.15	-30.12
2941.487	-29.12
2944.821	-29.12
2948.152	-38.12
2951.48	-37.12
2954.805	-24.12
2958.128	-33.12
2961.447	-31.12
2964.765	-34.12
2968.079	-31.12
2971.39	-33.12
2974.699	-36.12
2978.005	-36.12
2981.308	-34.12
2984.609	-41.12
2987.907	-34.12
2991.202	-39.12
2994.494	-36.12
2997.784	-39.12
3001.07	-39.12
3004.355	-41.12
3007.636	-40.12
3010.915	-43.12
3014.191	-43.12
3017.464	-45.12
3020.734	-39.12
3024.002	-46.12
3027.267	-45.12
3030.53	-48.12
3033.789	-45.12
3037.046	-52.12
3040.301	-53.12
3043.552	-48.12
3046.801	-47.12
3050.048	-49.12
3053.291	-53.12
3056.532	-51.12
3059.771	-44.12
3063.006	-56.12
3066.239	-51.12
3069.469	-49.12
3072.697	-61.12
3075.922	-55.12
3079.144	-54.12
3082.364	-57.12
3085.581	-56.12
3088.795	-61.12
3092.007	-65.12
3095.216	-56.12
3098.423	-57.12
3101.627	-53.12
3104.828	-56.12
3108.026	-52.12
3111.222	-60.12
3114.416	-54.12
3117.607	-60.12
3120.795	-52.12
3123.98	-62.12
3127.163	-60.12
3130.344	-55.12
3133.521	-56.12
3136.696	-50.12
3139.869	-53.12
3143.039	-56.12
3146.206	-56.12
3149.371	-58.12
3152.533	-58.12
3155.693	-63.12
3158.85	-55.12
3162.005	-64.12
3165.157	-61.12
3168.306	-54.12
3171.453	-57.12
3174.597	-58.12
3177.739	-56.12
3180.878	-66.12
3184.014	-66.12
3187.149	-62.12
3190.28	-68.12
3193.409	-61.12
3196.536	-69.12
3199.659	-65.12
3202.781	-72.12
3205.9	-67.12
3209.016	-74.12
3212.13	-70.12
3215.241	-71.12
3218.35	-61.12
3221.456	-67.12
3224.56	-72.12
3227.661	-70.12
3230.76	-72.12
3233.856	-75.12
3236.95	-71.12
3240.041	-66.12
3243.13	-75.12
3246.216	-68.12
3249.3	-71.12
3252.382	-70.12
3255.46	-66.12
3258.537	-43.12
3261.611	-70.12
3264.682	-67.12
3267.751	-67.12
3270.818	-77.12
3273.882	-77.12
3276.943	-72.12
3280.002	-75.12
3283.059	-78.12
3286.113	-69.12
3289.165	-68.12
3292.214	-80.12
3295.261	-71.12
3298.306	-72.12
3301.348	-72.12
3304.387	-76.12
3307.425	-71.12
3310.459	-75.12
3313.492	-82.12
3316.521	-81.12
3319.549	-81.12
3322.574	-83.12
3325.597	-83.12
3328.617	-78.12
3331.635	-75.12
3334.65	-75.12
3337.663	-88.12
3340.674	-79.12
3343.682	-76.12
3346.688	-83.12
3349.691	-84.12
3352.692	-85.12
3355.691	-81.12
3358.687	-83.12
3361.681	-83.12
3364.673	-80.12
3367.662	-77.12
3370.649	-77.12
3373.633	-77.12
3376.615	-78.12
3379.595	-80.12
3382.572	-81.12
3385.547	-79.12
3388.52	-78.12
3391.49	-80.12
3394.458	-80.12
3397.424	-78.12
3400.387	-81.12
3403.348	-77.12
3406.307	-77.12
3409.263	-82.12
3412.217	-81.12
3415.168	-80.12
3418.118	-82.12
3421.065	-80.12
3424.009	-78.12
3426.951	-82.12
3429.891	-83.12
3432.829	-81.12
3435.764	-80.12
3438.697	-77.12
3441.628	-80.12
3444.557	-83.12
3447.483	-83.12
3450.407	-84.12
3453.328	-81.12
3456.247	-83.12
3459.164	-80.12
3462.079	-78.12
3464.991	-84.12
3467.902	-87.12
3470.809	-87.12
3473.715	-86.12
3476.618	-85.12
3479.519	-75.12
3482.418	-84.12
3485.315	-86.12
3488.209	-86.12
3491.101	-80.12
3493.99	-87.12
3496.878	-81.12
3499.763	-83.12
3502.646	-83.12
3505.527	-85.12
3508.405	-83.12
3511.281	-89.12
3514.155	-80.12
3517.027	-86.12
3519.897	-81.12
3522.764	-80.12
3525.629	-89.12
3528.492	-81.12
3531.352	-82.12
3534.211	-87.12
3537.067	-89.12
3539.921	-86.12
3542.773	-89.12
3545.622	-84.12
3548.469	-93.12
3551.315	-82.12
3554.157	-87.12
3556.998	-93.12
3559.837	-79.12
3562.673	-82.12
3565.507	-84.12
3568.339	-85.12
3571.169	-91.12
3573.996	-87.12
3576.822	-82.12
3579.645	-91.12
3582.466	-81.12
3585.285	-90.12
3588.101	-88.12
3590.916	-87.12
3593.728	-86.12
3596.538	-87.12
3599.346	-99.12
3602.152	-91.12
3604.956	-86.12
3607.757	-91.12
3610.556	-91.12
3613.354	-88.12
3616.149	-94.12
3618.942	-92.12
3621.732	-92.12
3624.521	-82.12
3627.307	-91.12
3630.092	-88.12
3632.874	-89.12
3635.654	-88.12
3638.432	-90.12
3641.208	-90.12
3643.982	-89.12
3646.753	-88.12
3649.523	-88.12
3652.29	-95.12
3655.055	-88.12
3657.818	-93.12
3660.579	-90.12
3663.338	-93.12
3666.095	-89.12
3668.849	-93.12
3671.602	-88.12
3674.352	-97.12
3677.101	-86.12
3679.847	-94.12
3682.591	-87.12
3685.333	-90.12
3688.073	-97.12
3690.811	-91.12
3693.547	-85.12
3696.281	-87.12
3699.013	-88.12
3701.742	-89.12
3704.47	-87.12
3707.195	-90.12
3709.919	-97.12
3712.64	-96.12
3715.359	-92.12
3718.076	-89.12
3720.792	-92.12
3723.505	-91.12
3726.216	-95.12
3728.925	-93.12
3731.632	-96.12
3734.336	-93.12
3737.039	-95.12
3739.74	-89.12
3742.439	-87.12
3745.136	-96.12
3747.83	-97.12
3750.523	-91.12
3753.213	-108.12
3755.902	-95.12
3758.589	-93.12
3761.273	-97.12
3763.956	-93.12
3766.636	-94.12
3769.315	-95.12
3771.991	-93.12
3774.665	-83.12
3777.338	-90.12
3780.008	-99.12
3782.677	-88.12
3785.343	-94.12
3788.007	-99.12
3790.67	-92.12
3793.33	-92.12
3795.989	-90.12
3798.645	-97.12
3801.299	-93.12
3803.952	-88.12
3806.602	-96.12
3809.251	-97.12
3811.897	-92.12
3814.542	-92.12
3817.184	-88.12
3819.825	-88.12
3822.463	-91.12
3825.1	-91.12
3827.735	-90.12
3830.367	-95.12
3832.998	-91.12
3835.627	-84.12
3838.253	-94.12
3840.878	-90.12
3843.501	-90.12
3846.122	-90.12
3848.741	-88.12
3851.358	-87.12
3853.973	-84.12
3856.586	-94.12
3859.197	-85.12
3861.806	-85.12
3864.414	-90.12
3867.019	-80.12
3869.622	-77.12
3872.224	-63.12
3874.823	-45.12
3877.421	-13.12
3880.016	27.88
3882.61	80.88
3885.202	100.88
3887.792	62.88
3890.38	2.88
3892.966	-49.12
3895.55	-65.12
3898.132	-86.12
3900.713	-88.12
3903.291	-91.12
3905.868	-94.12
3908.442	-91.12
3911.015	-91.12
3913.586	-93.12
3916.155	-87.12
3918.722	-91.12
3921.287	-91.12
3923.85	-99.12
3926.411	-93.12
3928.971	-96.12
3931.528	-93.12
3934.084	-94.12
3936.638	-97.12
3939.19	-94.12
3941.74	-96.12
3944.288	-98.12
3946.834	-94.12
3949.378	-94.12
3951.921	-93.12
3954.462	-94.12
3957	-95.12
3959.537	-90.12
3962.072	-87.12
3964.606	-91.12
3967.137	-92.12
3969.667	-91.12
3972.194	-95.12
3974.72	-90.12
3977.244	-90.12
3979.766	-97.12
3982.286	-88.12
3984.805	-95.12
3987.321	-94.12
3989.836	-93.12
3992.349	-93.12
3994.86	-92.12
3997.369	-96.12
3999.877	-89.12
4002.382	-87.12
4004.886	-83.12
4007.388	-84.12
4009.888	-90.12
4012.386	-91.12
4014.883	-95.12
4017.377	-84.12
4019.87	-89.12
4022.361	-91.12
4024.85	-89.12
4027.338	-89.12
4029.823	-87.12
4032.307	-91.12
4034.789	-89.12
4037.269	-90.12
4039.747	-94.12
4042.224	-89.12
4044.699	-88.12
4047.172	-91.12
4049.643	-85.12
4052.112	-85.12
4054.58	-92.12
4057.046	-90.12
4059.51	-92.12
4061.972	-87.12
4064.432	-87.12
4066.891	-95.12
4069.348	-86.12
4071.803	-89.12
4074.256	-91.12
4076.708	-91.12
4079.158	-91.12
4081.606	-94.12
4084.052	-91.12
4086.497	-94.12
4088.939	-93.12
4091.38	-92.12
4093.819	-92.12
4096.257	-94.12
4098.693	-95.12
4101.127	-92.12
4103.559	-96.12
4105.989	58.88
4108.418	57.88
4110.845	50.88
4113.27	47.88
4115.694	36.88
4118.115	44.88
4120.535	-90.12
4122.954	-86.12
4125.37	-89.12
4127.785	-94.12
4130.198	-93.12
4132.609	-95.12
4135.019	-97.12
4137.427	-98.12
4139.833	-94.12
4142.237	-100.12