File: Data/Raman/2017-08-29 - Alluminum 2/Aug 29 2017 - Aluminum 2/blank 2_RamanShift_2.txt
Data from blank 2_RamanShift_2.txt Node

Date: Tue Aug 29 12:24:07 IDT 2017
User: aro
Spectrometer: QEPB0276
Trigger mode: 0
Integration Time (sec): 3.000000E1
Scans to average: 1
Electric dark correction enabled: true
Nonlinearity correction enabled: false
Boxcar width: 0
XAxis mode: Raman Shifts
Number of Pixels in Spectrum: 1044
>>>>>Begin Spectral Data<<<<<
160.701	36.75
166.742	50.75
172.777	84.75
178.805	203.75
184.826	483.75
190.841	969.75
196.849	1540.75
202.85	1961.75
208.845	2123.75
214.833	2130.75
220.815	2159.75
226.789	2192.75
232.758	2272.75
238.719	2304.75
244.674	2353.75
250.623	2394.75
256.565	2439.75
262.5	2485.75
268.429	2515.75
274.351	2586.75
280.267	2617.75
286.176	2696.75
292.079	2727.75
297.975	2806.75
303.865	2833.75
309.748	2892.75
315.625	2920.75
321.495	2953.75
327.359	2981.75
333.217	3018.75
339.068	3076.75
344.912	3080.75
350.751	3163.75
356.583	3182.75
362.408	3263.75
368.227	3313.75
374.04	3510.75
379.847	3832.75
385.647	3970.75
391.44	3807.75
397.228	3606.75
403.009	3638.75
408.784	4030.75
414.553	4915.75
420.315	5949.75
426.071	5975.75
431.821	4921.75
437.565	3985.75
443.302	3700.75
449.033	3543.75
454.758	3488.75
460.477	3394.75
466.189	3314.75
471.896	3219.75
477.596	3170.75
483.29	3138.75
488.978	3163.75
494.66	3100.75
500.335	2913.75
506.005	2621.75
511.668	2282.75
517.325	2036.75
522.977	1783.75
528.622	1636.75
534.261	1518.75
539.894	1433.75
545.521	1378.75
551.141	1318.75
556.756	1288.75
562.365	1250.75
567.968	1217.75
573.565	1248.75
579.155	1245.75
584.74	1257.75
590.319	1233.75
595.892	1193.75
601.459	1220.75
607.02	1224.75
612.575	1193.75
618.124	1188.75
623.667	1134.75
629.204	1128.75
634.735	1206.75
640.261	1448.75
645.781	1779.75
651.294	1892.75
656.802	1639.75
662.304	1256.75
667.8	1048.75
673.29	983.75
678.775	943.75
684.254	944.75
689.726	918.75
695.193	895.75
700.655	891.75
706.11	880.75
711.56	877.75
717.004	872.75
722.442	875.75
727.874	871.75
733.301	905.75
738.722	940.75
744.137	997.75
749.547	1090.75
754.951	1141.75
760.349	1121.75
765.741	1046.75
771.128	1021.75
776.509	1027.75
781.885	1092.75
787.254	1129.75
792.618	1163.75
797.977	1157.75
803.33	1139.75
808.677	1143.75
814.019	1122.75
819.355	1102.75
824.686	1071.75
830.011	1046.75
835.33	1029.75
840.644	987.75
845.952	967.75
851.255	910.75
856.552	875.75
861.844	831.75
867.13	798.75
872.41	789.75
877.686	752.75
882.955	731.75
888.219	727.75
893.478	717.75
898.731	707.75
903.979	708.75
909.221	689.75
914.458	690.75
919.69	692.75
924.916	695.75
930.136	690.75
935.351	683.75
940.561	676.75
945.766	676.75
950.965	684.75
956.158	674.75
961.347	670.75
966.529	665.75
971.707	648.75
976.879	645.75
982.046	649.75
987.208	642.75
992.364	635.75
997.515	647.75
1002.66	656.75
1007.801	668.75
1012.936	678.75
1018.066	673.75
1023.19	684.75
1028.309	694.75
1033.423	712.75
1038.532	729.75
1043.636	745.75
1048.734	751.75
1053.827	738.75
1058.915	728.75
1063.998	742.75
1069.075	744.75
1074.147	735.75
1079.214	744.75
1084.276	733.75
1089.333	722.75
1094.385	719.75
1099.431	697.75
1104.472	688.75
1109.509	670.75
1114.54	651.75
1119.565	635.75
1124.586	627.75
1129.602	605.75
1134.613	601.75
1139.618	609.75
1144.619	617.75
1149.614	620.75
1154.604	622.75
1159.589	630.75
1164.57	649.75
1169.545	655.75
1174.515	653.75
1179.48	656.75
1184.44	652.75
1189.395	648.75
1194.345	652.75
1199.29	650.75
1204.23	652.75
1209.165	660.75
1214.095	651.75
1219.021	655.75
1223.941	643.75
1228.856	657.75
1233.766	648.75
1238.672	657.75
1243.572	636.75
1248.467	630.75
1253.358	612.75
1258.244	588.75
1263.124	574.75
1268	562.75
1272.871	551.75
1277.737	541.75
1282.599	546.75
1287.455	531.75
1292.306	540.75
1297.153	552.75
1301.995	556.75
1306.832	560.75
1311.664	562.75
1316.491	552.75
1321.314	542.75
1326.132	556.75
1330.945	538.75
1335.753	540.75
1340.556	541.75
1345.354	537.75
1350.148	536.75
1354.937	537.75
1359.722	519.75
1364.501	519.75
1369.276	525.75
1374.046	521.75
1378.811	501.75
1383.572	493.75
1388.327	507.75
1393.079	500.75
1397.825	489.75
1402.567	481.75
1407.304	463.75
1412.036	468.75
1416.764	456.75
1421.487	476.75
1426.205	459.75
1430.919	465.75
1435.628	475.75
1440.333	480.75
1445.032	490.75
1449.727	470.75
1454.418	492.75
1459.104	490.75
1463.785	484.75
1468.462	491.75
1473.134	489.75
1477.802	481.75
1482.465	484.75
1487.123	493.75
1491.777	493.75
1496.426	491.75
1501.071	502.75
1505.711	523.75
1510.347	522.75
1514.978	534.75
1519.604	533.75
1524.226	527.75
1528.844	512.75
1533.457	502.75
1538.065	486.75
1542.669	465.75
1547.269	471.75
1551.864	476.75
1556.454	472.75
1561.041	483.75
1565.622	467.75
1570.199	447.75
1574.772	448.75
1579.34	441.75
1583.904	447.75
1588.464	439.75
1593.019	443.75
1597.569	449.75
1602.115	428.75
1606.657	424.75
1611.195	416.75
1615.728	416.75
1620.256	418.75
1624.78	412.75
1629.3	430.75
1633.816	408.75
1638.327	429.75
1642.834	423.75
1647.336	423.75
1651.834	439.75
1656.328	413.75
1660.817	435.75
1665.302	430.75
1669.783	417.75
1674.259	429.75
1678.732	428.75
1683.199	429.75
1687.663	432.75
1692.122	430.75
1696.577	428.75
1701.028	425.75
1705.474	408.75
1709.917	419.75
1714.355	405.75
1718.788	405.75
1723.218	397.75
1727.643	382.75
1732.064	381.75
1736.481	373.75
1740.893	360.75
1745.301	354.75
1749.705	346.75
1754.105	345.75
1758.501	344.75
1762.893	319.75
1767.28	326.75
1771.663	320.75
1776.042	333.75
1780.417	334.75
1784.787	335.75
1789.154	333.75
1793.516	333.75
1797.874	342.75
1802.228	329.75
1806.578	327.75
1810.924	332.75
1815.266	318.75
1819.603	308.75
1823.937	306.75
1828.266	303.75
1832.591	293.75
1836.913	295.75
1841.23	286.75
1845.543	293.75
1849.852	289.75
1854.156	285.75
1858.457	292.75
1862.754	297.75
1867.047	296.75
1871.335	291.75
1875.62	295.75
1879.9	286.75
1884.177	291.75
1888.449	295.75
1892.718	301.75
1896.982	289.75
1901.243	289.75
1905.499	294.75
1909.752	290.75
1914	299.75
1918.245	300.75
1922.485	302.75
1926.722	307.75
1930.954	300.75
1935.183	298.75
1939.408	301.75
1943.628	304.75
1947.845	298.75
1952.058	289.75
1956.267	293.75
1960.472	275.75
1964.673	262.75
1968.87	248.75
1973.063	263.75
1977.252	249.75
1981.438	244.75
1985.619	241.75
1989.797	226.75
1993.971	224.75
1998.14	231.75
2002.306	234.75
2006.469	234.75
2010.627	231.75
2014.781	230.75
2018.932	222.75
2023.078	228.75
2027.221	226.75
2031.36	214.75
2035.495	209.75
2039.627	207.75
2043.754	217.75
2047.878	205.75
2051.998	202.75
2056.114	206.75
2060.226	217.75
2064.334	214.75
2068.439	217.75
2072.54	216.75
2076.637	222.75
2080.73	224.75
2084.82	220.75
2088.906	219.75
2092.988	226.75
2097.066	220.75
2101.14	219.75
2105.211	213.75
2109.278	207.75
2113.342	211.75
2117.401	206.75
2121.457	199.75
2125.509	202.75
2129.558	196.75
2133.602	186.75
2137.643	183.75
2141.681	184.75
2145.714	186.75
2149.744	165.75
2153.77	181.75
2157.793	183.75
2161.812	175.75
2165.827	169.75
2169.838	169.75
2173.846	173.75
2177.851	166.75
2181.851	157.75
2185.848	155.75
2189.841	157.75
2193.831	156.75
2197.817	154.75
2201.799	154.75
2205.778	147.75
2209.753	146.75
2213.725	162.75
2217.693	148.75
2221.657	146.75
2225.618	154.75
2229.575	149.75
2233.529	149.75
2237.479	151.75
2241.425	139.75
2245.368	143.75
2249.307	134.75
2253.243	135.75
2257.175	132.75
2261.104	128.75
2265.029	131.75
2268.95	126.75
2272.868	129.75
2276.783	127.75
2280.694	117.75
2284.601	118.75
2288.505	119.75
2292.405	113.75
2296.302	157.75
2300.195	131.75
2304.085	115.75
2307.971	102.75
2311.854	99.75
2315.734	105.75
2319.609	111.75
2323.482	107.75
2327.351	112.75
2331.216	137.75
2335.078	143.75
2338.937	118.75
2342.792	98.75
2346.643	92.75
2350.492	100.75
2354.336	90.75
2358.178	91.75
2362.015	93.75
2365.85	88.75
2369.681	89.75
2373.508	98.75
2377.333	95.75
2381.153	89.75
2384.971	86.75
2388.785	89.75
2392.595	89.75
2396.402	88.75
2400.206	85.75
2404.007	87.75
2407.804	80.75
2411.597	85.75
2415.388	89.75
2419.174	81.75
2422.958	82.75
2426.738	74.75
2430.515	78.75
2434.289	80.75
2438.059	74.75
2441.825	77.75
2445.589	77.75
2449.349	69.75
2453.106	71.75
2456.859	68.75
2460.61	72.75
2464.356	63.75
2468.1	65.75
2471.84	65.75
2475.577	65.75
2479.311	63.75
2483.041	66.75
2486.768	57.75
2490.492	58.75
2494.213	54.75
2497.93	60.75
2501.644	54.75
2505.355	54.75
2509.062	51.75
2512.766	53.75
2516.467	54.75
2520.165	54.75
2523.859	50.75
2527.551	58.75
2531.239	60.75
2534.923	53.75
2538.605	47.75
2542.283	48.75
2545.958	54.75
2549.63	63.75
2553.299	57.75
2556.964	61.75
2560.626	52.75
2564.285	49.75
2567.941	54.75
2571.594	48.75
2575.243	45.75
2578.89	44.75
2582.533	51.75
2586.173	54.75
2589.809	56.75
2593.443	40.75
2597.073	44.75
2600.701	47.75
2604.325	43.75
2607.946	46.75
2611.564	44.75
2615.178	38.75
2618.79	33.75
2622.398	41.75
2626.004	35.75
2629.606	37.75
2633.205	38.75
2636.801	34.75
2640.394	27.75
2643.983	28.75
2647.57	32.75
2651.153	20.75
2654.734	31.75
2658.311	28.75
2661.885	19.75
2665.456	27.75
2669.025	24.75
2672.589	21.75
2676.151	19.75
2679.71	12.75
2683.266	21.75
2686.819	16.75
2690.368	16.75
2693.915	15.75
2697.458	11.75
2700.999	14.75
2704.536	13.75
2708.071	15.75
2711.602	6.75
2715.13	8.75
2718.656	10.75
2722.178	8.75
2725.697	5.75
2729.214	10.75
2732.727	12.75
2736.237	9.75
2739.744	9.75
2743.249	13.75
2746.75	8.75
2750.248	1.75
2753.743	7.75
2757.236	8.75
2760.725	5.75
2764.211	5.75
2767.695	7.75
2771.175	2.75
2774.652	4.75
2778.127	7.75
2781.598	4.75
2785.067	6.75
2788.532	8.75
2791.995	2.75
2795.455	-2.25
2798.911	0.75
2802.365	-7.25
2805.816	-0.25
2809.264	-14.25
2812.709	-5.25
2816.151	-2.25
2819.59	3.75
2823.026	-4.25
2826.46	-6.25
2829.89	-6.25
2833.318	-4.25
2836.742	3.75
2840.164	-10.25
2843.583	-4.25
2846.999	-6.25
2850.412	-13.25
2853.822	-11.25
2857.229	-4.25
2860.634	-10.25
2864.035	-8.25
2867.434	-13.25
2870.83	-10.25
2874.223	-17.25
2877.613	-22.25
2881	-20.25
2884.385	-19.25
2887.766	-22.25
2891.145	-23.25
2894.521	-21.25
2897.894	-22.25
2901.264	-20.25
2904.631	-26.25
2907.996	-27.25
2911.358	-25.25
2914.717	-23.25
2918.073	-28.25
2921.426	-26.25
2924.777	-29.25
2928.124	-28.25
2931.469	-30.25
2934.811	-27.25
2938.15	-27.25
2941.487	-30.25
2944.821	-33.25
2948.152	-36.25
2951.48	-36.25
2954.805	-27.25
2958.128	-33.25
2961.447	-32.25
2964.765	-37.25
2968.079	-33.25
2971.39	-37.25
2974.699	-34.25
2978.005	-30.25
2981.308	-33.25
2984.609	-42.25
2987.907	-32.25
2991.202	-37.25
2994.494	-36.25
2997.784	-31.25
3001.07	-35.25
3004.355	-33.25
3007.636	-34.25
3010.915	-41.25
3014.191	-41.25
3017.464	-46.25
3020.734	-41.25
3024.002	-45.25
3027.267	-43.25
3030.53	-41.25
3033.789	-40.25
3037.046	-44.25
3040.301	-43.25
3043.552	-46.25
3046.801	-47.25
3050.048	-48.25
3053.291	-47.25
3056.532	-49.25
3059.771	-45.25
3063.006	-53.25
3066.239	-45.25
3069.469	-47.25
3072.697	-54.25
3075.922	-52.25
3079.144	-50.25
3082.364	-52.25
3085.581	-51.25
3088.795	-55.25
3092.007	-56.25
3095.216	-50.25
3098.423	-51.25
3101.627	-53.25
3104.828	-53.25
3108.026	-64.25
3111.222	-58.25
3114.416	-46.25
3117.607	-54.25
3120.795	-51.25
3123.98	-64.25
3127.163	-54.25
3130.344	-55.25
3133.521	-62.25
3136.696	-48.25
3139.869	-53.25
3143.039	-58.25
3146.206	-59.25
3149.371	-63.25
3152.533	-60.25
3155.693	-61.25
3158.85	-62.25
3162.005	-61.25
3165.157	-59.25
3168.306	-56.25
3171.453	-64.25
3174.597	-61.25
3177.739	-60.25
3180.878	-63.25
3184.014	-67.25
3187.149	-64.25
3190.28	-66.25
3193.409	-65.25
3196.536	-71.25
3199.659	-71.25
3202.781	-71.25
3205.9	-63.25
3209.016	-76.25
3212.13	-73.25
3215.241	-72.25
3218.35	-70.25
3221.456	-74.25
3224.56	-70.25
3227.661	-71.25
3230.76	-71.25
3233.856	-74.25
3236.95	-78.25
3240.041	-71.25
3243.13	-75.25
3246.216	-72.25
3249.3	-72.25
3252.382	-68.25
3255.46	-68.25
3258.537	-42.25
3261.611	-71.25
3264.682	-71.25
3267.751	-66.25
3270.818	-78.25
3273.882	-70.25
3276.943	-70.25
3280.002	-68.25
3283.059	-74.25
3286.113	-73.25
3289.165	-66.25
3292.214	-71.25
3295.261	-66.25
3298.306	-69.25
3301.348	-73.25
3304.387	-72.25
3307.425	-74.25
3310.459	-76.25
3313.492	-73.25
3316.521	-77.25
3319.549	-71.25
3322.574	-80.25
3325.597	-76.25
3328.617	-75.25
3331.635	-74.25
3334.65	-75.25
3337.663	-82.25
3340.674	-77.25
3343.682	-75.25
3346.688	-79.25
3349.691	-75.25
3352.692	-71.25
3355.691	-79.25
3358.687	-76.25
3361.681	-78.25
3364.673	-74.25
3367.662	-80.25
3370.649	-84.25
3373.633	-80.25
3376.615	-79.25
3379.595	-83.25
3382.572	-81.25
3385.547	-78.25
3388.52	-78.25
3391.49	-81.25
3394.458	-82.25
3397.424	-77.25
3400.387	-73.25
3403.348	-76.25
3406.307	-74.25
3409.263	-78.25
3412.217	-79.25
3415.168	-80.25
3418.118	-77.25
3421.065	-80.25
3424.009	-76.25
3426.951	-84.25
3429.891	-79.25
3432.829	-78.25
3435.764	-78.25
3438.697	-80.25
3441.628	-81.25
3444.557	-76.25
3447.483	-83.25
3450.407	-84.25
3453.328	-77.25
3456.247	-84.25
3459.164	-81.25
3462.079	-80.25
3464.991	-81.25
3467.902	-86.25
3470.809	-85.25
3473.715	-81.25
3476.618	-84.25
3479.519	-78.25
3482.418	-82.25
3485.315	-88.25
3488.209	-86.25
3491.101	-86.25
3493.99	-86.25
3496.878	-87.25
3499.763	-88.25
3502.646	-80.25
3505.527	-87.25
3508.405	-84.25
3511.281	-89.25
3514.155	-83.25
3517.027	-87.25
3519.897	-80.25
3522.764	-82.25
3525.629	-86.25
3528.492	-83.25
3531.352	-85.25
3534.211	-85.25
3537.067	-87.25
3539.921	-82.25
3542.773	-86.25
3545.622	-82.25
3548.469	-88.25
3551.315	-78.25
3554.157	-82.25
3556.998	-84.25
3559.837	-87.25
3562.673	-84.25
3565.507	-85.25
3568.339	-84.25
3571.169	-89.25
3573.996	-87.25
3576.822	-84.25
3579.645	-91.25
3582.466	-83.25
3585.285	-88.25
3588.101	-87.25
3590.916	-90.25
3593.728	-83.25
3596.538	-90.25
3599.346	-87.25
3602.152	-88.25
3604.956	-82.25
3607.757	-89.25
3610.556	-87.25
3613.354	-88.25
3616.149	-92.25
3618.942	-86.25
3621.732	-90.25
3624.521	-86.25
3627.307	-93.25
3630.092	-88.25
3632.874	-87.25
3635.654	-84.25
3638.432	-90.25
3641.208	-91.25
3643.982	-87.25
3646.753	-88.25
3649.523	-88.25
3652.29	-90.25
3655.055	-90.25
3657.818	-90.25
3660.579	-90.25
3663.338	-89.25
3666.095	-91.25
3668.849	-87.25
3671.602	-87.25
3674.352	-87.25
3677.101	-88.25
3679.847	-93.25
3682.591	-86.25
3685.333	-87.25
3688.073	-91.25
3690.811	-88.25
3693.547	-85.25
3696.281	-83.25
3699.013	-89.25
3701.742	-95.25
3704.47	-95.25
3707.195	-88.25
3709.919	-87.25
3712.64	-91.25
3715.359	-90.25
3718.076	-85.25
3720.792	-93.25
3723.505	-91.25
3726.216	-93.25
3728.925	-91.25
3731.632	-92.25
3734.336	-97.25
3737.039	-93.25
3739.74	-88.25
3742.439	-89.25
3745.136	-96.25
3747.83	-95.25
3750.523	-94.25
3753.213	-108.25
3755.902	-96.25
3758.589	-90.25
3761.273	-101.25
3763.956	-93.25
3766.636	-85.25
3769.315	-95.25
3771.991	-93.25
3774.665	-87.25
3777.338	-96.25
3780.008	-97.25
3782.677	-90.25
3785.343	-93.25
3788.007	-100.25
3790.67	-93.25
3793.33	-88.25
3795.989	-90.25
3798.645	-93.25
3801.299	-92.25
3803.952	-94.25
3806.602	-98.25
3809.251	-95.25
3811.897	-91.25
3814.542	-94.25
3817.184	-92.25
3819.825	-92.25
3822.463	-88.25
3825.1	-92.25
3827.735	-90.25
3830.367	-94.25
3832.998	-88.25
3835.627	-88.25
3838.253	-93.25
3840.878	-88.25
3843.501	-91.25
3846.122	-88.25
3848.741	-91.25
3851.358	-83.25
3853.973	-85.25
3856.586	-94.25
3859.197	-88.25
3861.806	-86.25
3864.414	-88.25
3867.019	-85.25
3869.622	-77.25
3872.224	-66.25
3874.823	-45.25
3877.421	-16.25
3880.016	33.75
3882.61	81.75
3885.202	102.75
3887.792	62.75
3890.38	-3.25
3892.966	-45.25
3895.55	-66.25
3898.132	-86.25
3900.713	-85.25
3903.291	-87.25
3905.868	-89.25
3908.442	-87.25
3911.015	-86.25
3913.586	-87.25
3916.155	-90.25
3918.722	-90.25
3921.287	-91.25
3923.85	-93.25
3926.411	-91.25
3928.971	-94.25
3931.528	-90.25
3934.084	-96.25
3936.638	-95.25
3939.19	-98.25
3941.74	-93.25
3944.288	-93.25
3946.834	-93.25
3949.378	-98.25
3951.921	-88.25
3954.462	-94.25
3957	-87.25
3959.537	-88.25
3962.072	-87.25
3964.606	-92.25
3967.137	-94.25
3969.667	-93.25
3972.194	-96.25
3974.72	-90.25
3977.244	-93.25
3979.766	-94.25
3982.286	-92.25
3984.805	-95.25
3987.321	-91.25
3989.836	-95.25
3992.349	-95.25
3994.86	-94.25
3997.369	-93.25
3999.877	-87.25
4002.382	-88.25
4004.886	-89.25
4007.388	-91.25
4009.888	-93.25
4012.386	-92.25
4014.883	-92.25
4017.377	-91.25
4019.87	-93.25
4022.361	-93.25
4024.85	-91.25
4027.338	-85.25
4029.823	-89.25
4032.307	-88.25
4034.789	-90.25
4037.269	-88.25
4039.747	-90.25
4042.224	-86.25
4044.699	-86.25
4047.172	-90.25
4049.643	-92.25
4052.112	-84.25
4054.58	-95.25
4057.046	-91.25
4059.51	-90.25
4061.972	-90.25
4064.432	-86.25
4066.891	-94.25
4069.348	-87.25
4071.803	-89.25
4074.256	-85.25
4076.708	-88.25
4079.158	-89.25
4081.606	-86.25
4084.052	-92.25
4086.497	-90.25
4088.939	-89.25
4091.38	-91.25
4093.819	-89.25
4096.257	-93.25
4098.693	-95.25
4101.127	-93.25
4103.559	-95.25
4105.989	61.75
4108.418	50.75
4110.845	46.75
4113.27	36.75
4115.694	42.75
4118.115	41.75
4120.535	-92.25
4122.954	-86.25
4125.37	-91.25
4127.785	-91.25
4130.198	-90.25
4132.609	-88.25
4135.019	-94.25
4137.427	-93.25
4139.833	-92.25
4142.237	-96.25