File: Data/Raman/2017-08-29 - Alluminum 2/Aug 29 2017 - Aluminum 2/EC 11 3_RamanShift_1.txt
Data from EC 11 3_RamanShift_1.txt Node

Date: Tue Aug 29 12:41:07 IDT 2017
User: aro
Spectrometer: QEPB0276
Trigger mode: 0
Integration Time (sec): 3.000000E1
Scans to average: 1
Electric dark correction enabled: true
Nonlinearity correction enabled: false
Boxcar width: 0
XAxis mode: Raman Shifts
Number of Pixels in Spectrum: 1044
>>>>>Begin Spectral Data<<<<<
160.701	17.5
166.742	37.5
172.777	135.5
178.805	433.5
184.826	1116.5
190.841	2311.5
196.849	3733.5
202.85	4841.5
208.845	5266.5
214.833	5454.5
220.815	5547.5
226.789	5685.5
232.758	5874.5
238.719	6030.5
244.674	6144.5
250.623	6242.5
256.565	6342.5
262.5	6382.5
268.429	6485.5
274.351	6568.5
280.267	6607.5
286.176	6693.5
292.079	6787.5
297.975	6856.5
303.865	6884.5
309.748	6942.5
315.625	6992.5
321.495	6988.5
327.359	7038.5
333.217	7044.5
339.068	7102.5
344.912	7106.5
350.751	7133.5
356.583	7130.5
362.408	7142.5
368.227	7173.5
374.04	7269.5
379.847	7393.5
385.647	7509.5
391.44	7403.5
397.228	7292.5
403.009	7351.5
408.784	7570.5
414.553	8004.5
420.315	8520.5
426.071	8575.5
431.821	7951.5
437.565	7520.5
443.302	7359.5
449.033	7275.5
454.758	7204.5
460.477	7189.5
466.189	7158.5
471.896	7087.5
477.596	7005.5
483.29	7025.5
488.978	6992.5
494.66	6926.5
500.335	6837.5
506.005	6622.5
511.668	6467.5
517.325	6234.5
522.977	6084.5
528.622	5999.5
534.261	5940.5
539.894	5845.5
545.521	5782.5
551.141	5771.5
556.756	5765.5
562.365	5717.5
567.968	5688.5
573.565	5675.5
579.155	5689.5
584.74	5668.5
590.319	5632.5
595.892	5601.5
601.459	5577.5
607.02	5561.5
612.575	5520.5
618.124	5487.5
623.667	5455.5
629.204	5390.5
634.735	5398.5
640.261	5526.5
645.781	5692.5
651.294	5739.5
656.802	5596.5
662.304	5445.5
667.8	5318.5
673.29	5261.5
678.775	5215.5
684.254	5204.5
689.726	5182.5
695.193	5136.5
700.655	5134.5
706.11	5112.5
711.56	5081.5
717.004	5037.5
722.442	5038.5
727.874	4995.5
733.301	5017.5
738.722	5031.5
744.137	5039.5
749.547	5085.5
754.951	5084.5
760.349	5110.5
765.741	5064.5
771.128	5045.5
776.509	5040.5
781.885	5083.5
787.254	5085.5
792.618	5085.5
797.977	5063.5
803.33	5018.5
808.677	5015.5
814.019	4956.5
819.355	4905.5
824.686	4888.5
830.011	4878.5
835.33	4859.5
840.644	4825.5
845.952	4852.5
851.255	4849.5
856.552	4812.5
861.844	4783.5
867.13	4791.5
872.41	4746.5
877.686	4728.5
882.955	4654.5
888.219	4634.5
893.478	4574.5
898.731	4525.5
903.979	4528.5
909.221	4507.5
914.458	4463.5
919.69	4491.5
924.916	4515.5
930.136	4546.5
935.351	4526.5
940.561	4518.5
945.766	4471.5
950.965	4485.5
956.158	4476.5
961.347	4383.5
966.529	4345.5
971.707	4301.5
976.879	4247.5
982.046	4230.5
987.208	4220.5
992.364	4220.5
997.515	4199.5
1002.66	4226.5
1007.801	4290.5
1012.936	4315.5
1018.066	4324.5
1023.19	4329.5
1028.309	4339.5
1033.423	4355.5
1038.532	4328.5
1043.636	4269.5
1048.734	4266.5
1053.827	4198.5
1058.915	4143.5
1063.998	4122.5
1069.075	4128.5
1074.147	4106.5
1079.214	4111.5
1084.276	4150.5
1089.333	4158.5
1094.385	4159.5
1099.431	4150.5
1104.472	4131.5
1109.509	4114.5
1114.54	4080.5
1119.565	3999.5
1124.586	3937.5
1129.602	3909.5
1134.613	3886.5
1139.618	3853.5
1144.619	3843.5
1149.614	3867.5
1154.604	3821.5
1159.589	3868.5
1164.57	3869.5
1169.545	3859.5
1174.515	3880.5
1179.48	3819.5
1184.44	3813.5
1189.395	3781.5
1194.345	3754.5
1199.29	3740.5
1204.23	3721.5
1209.165	3747.5
1214.095	3730.5
1219.021	3763.5
1223.941	3766.5
1228.856	3804.5
1233.766	3801.5
1238.672	3787.5
1243.572	3791.5
1248.467	3743.5
1253.358	3685.5
1258.244	3612.5
1263.124	3575.5
1268	3501.5
1272.871	3453.5
1277.737	3423.5
1282.599	3422.5
1287.455	3409.5
1292.306	3414.5
1297.153	3417.5
1301.995	3427.5
1306.832	3448.5
1311.664	3409.5
1316.491	3402.5
1321.314	3361.5
1326.132	3325.5
1330.945	3249.5
1335.753	3159.5
1340.556	3094.5
1345.354	3051.5
1350.148	2980.5
1354.937	2955.5
1359.722	2955.5
1364.501	2958.5
1369.276	2993.5
1374.046	3035.5
1378.811	3082.5
1383.572	3114.5
1388.327	3120.5
1393.079	3102.5
1397.825	3067.5
1402.567	3003.5
1407.304	2927.5
1412.036	2898.5
1416.764	2908.5
1421.487	2860.5
1426.205	2838.5
1430.919	2852.5
1435.628	2849.5
1440.333	2868.5
1445.032	2835.5
1449.727	2849.5
1454.418	2845.5
1459.104	2801.5
1463.785	2760.5
1468.462	2710.5
1473.134	2679.5
1477.802	2620.5
1482.465	2582.5
1487.123	2559.5
1491.777	2580.5
1496.426	2572.5
1501.071	2622.5
1505.711	2627.5
1510.347	2692.5
1514.978	2746.5
1519.604	2767.5
1524.226	2775.5
1528.844	2760.5
1533.457	2747.5
1538.065	2732.5
1542.669	2692.5
1547.269	2664.5
1551.864	2632.5
1556.454	2641.5
1561.041	2633.5
1565.622	2570.5
1570.199	2543.5
1574.772	2563.5
1579.34	2520.5
1583.904	2527.5
1588.464	2486.5
1593.019	2501.5
1597.569	2427.5
1602.115	2409.5
1606.657	2357.5
1611.195	2309.5
1615.728	2264.5
1620.256	2251.5
1624.78	2232.5
1629.3	2218.5
1633.816	2213.5
1638.327	2221.5
1642.834	2211.5
1647.336	2210.5
1651.834	2227.5
1656.328	2211.5
1660.817	2237.5
1665.302	2210.5
1669.783	2175.5
1674.259	2151.5
1678.732	2125.5
1683.199	2075.5
1687.663	2041.5
1692.122	2009.5
1696.577	1977.5
1701.028	2024.5
1705.474	2052.5
1709.917	2093.5
1714.355	2114.5
1718.788	2133.5
1723.218	2130.5
1727.643	2103.5
1732.064	2083.5
1736.481	2020.5
1740.893	2005.5
1745.301	1933.5
1749.705	1899.5
1754.105	1838.5
1758.501	1798.5
1762.893	1754.5
1767.28	1712.5
1771.663	1670.5
1776.042	1650.5
1780.417	1641.5
1784.787	1634.5
1789.154	1674.5
1793.516	1692.5
1797.874	1721.5
1802.228	1756.5
1806.578	1777.5
1810.924	1814.5
1815.266	1755.5
1819.603	1731.5
1823.937	1704.5
1828.266	1674.5
1832.591	1646.5
1836.913	1611.5
1841.23	1603.5
1845.543	1609.5
1849.852	1581.5
1854.156	1585.5
1858.457	1576.5
1862.754	1579.5
1867.047	1581.5
1871.335	1583.5
1875.62	1567.5
1879.9	1571.5
1884.177	1542.5
1888.449	1558.5
1892.718	1519.5
1896.982	1522.5
1901.243	1507.5
1905.499	1475.5
1909.752	1486.5
1914	1487.5
1918.245	1506.5
1922.485	1511.5
1926.722	1532.5
1930.954	1561.5
1935.183	1554.5
1939.408	1574.5
1943.628	1568.5
1947.845	1579.5
1952.058	1567.5
1956.267	1547.5
1960.472	1526.5
1964.673	1479.5
1968.87	1454.5
1973.063	1419.5
1977.252	1396.5
1981.438	1391.5
1985.619	1373.5
1989.797	1339.5
1993.971	1326.5
1998.14	1310.5
2002.306	1311.5
2006.469	1302.5
2010.627	1291.5
2014.781	1285.5
2018.932	1265.5
2023.078	1233.5
2027.221	1225.5
2031.36	1203.5
2035.495	1183.5
2039.627	1173.5
2043.754	1158.5
2047.878	1136.5
2051.998	1126.5
2056.114	1142.5
2060.226	1140.5
2064.334	1121.5
2068.439	1136.5
2072.54	1141.5
2076.637	1153.5
2080.73	1155.5
2084.82	1170.5
2088.906	1171.5
2092.988	1169.5
2097.066	1178.5
2101.14	1146.5
2105.211	1135.5
2109.278	1143.5
2113.342	1129.5
2117.401	1116.5
2121.457	1120.5
2125.509	1103.5
2129.558	1091.5
2133.602	1080.5
2137.643	1066.5
2141.681	1067.5
2145.714	1066.5
2149.744	1045.5
2153.77	1051.5
2157.793	1025.5
2161.812	1023.5
2165.827	1007.5
2169.838	1007.5
2173.846	985.5
2177.851	959.5
2181.851	946.5
2185.848	939.5
2189.841	913.5
2193.831	924.5
2197.817	916.5
2201.799	916.5
2205.778	904.5
2209.753	888.5
2213.725	909.5
2217.693	897.5
2221.657	897.5
2225.618	907.5
2229.575	895.5
2233.529	904.5
2237.479	874.5
2241.425	873.5
2245.368	870.5
2249.307	849.5
2253.243	851.5
2257.175	839.5
2261.104	834.5
2265.029	821.5
2268.95	811.5
2272.868	809.5
2276.783	792.5
2280.694	790.5
2284.601	785.5
2288.505	781.5
2292.405	769.5
2296.302	758.5
2300.195	751.5
2304.085	739.5
2307.971	744.5
2311.854	729.5
2315.734	722.5
2319.609	711.5
2323.482	714.5
2327.351	717.5
2331.216	742.5
2335.078	756.5
2338.937	718.5
2342.792	698.5
2346.643	685.5
2350.492	687.5
2354.336	689.5
2358.178	681.5
2362.015	692.5
2365.85	697.5
2369.681	696.5
2373.508	688.5
2377.333	693.5
2381.153	696.5
2384.971	690.5
2388.785	682.5
2392.595	684.5
2396.402	680.5
2400.206	670.5
2404.007	666.5
2407.804	664.5
2411.597	663.5
2415.388	664.5
2419.174	660.5
2422.958	648.5
2426.738	634.5
2430.515	637.5
2434.289	628.5
2438.059	633.5
2441.825	620.5
2445.589	634.5
2449.349	620.5
2453.106	595.5
2456.859	598.5
2460.61	594.5
2464.356	563.5
2468.1	570.5
2471.84	566.5
2475.577	568.5
2479.311	557.5
2483.041	559.5
2486.768	553.5
2490.492	554.5
2494.213	545.5
2497.93	548.5
2501.644	546.5
2505.355	540.5
2509.062	537.5
2512.766	547.5
2516.467	543.5
2520.165	529.5
2523.859	533.5
2527.551	520.5
2531.239	527.5
2534.923	522.5
2538.605	521.5
2542.283	517.5
2545.958	516.5
2549.63	524.5
2553.299	518.5
2556.964	523.5
2560.626	512.5
2564.285	502.5
2567.941	507.5
2571.594	511.5
2575.243	503.5
2578.89	499.5
2582.533	490.5
2586.173	487.5
2589.809	490.5
2593.443	475.5
2597.073	470.5
2600.701	476.5
2604.325	467.5
2607.946	458.5
2611.564	454.5
2615.178	444.5
2618.79	445.5
2622.398	436.5
2626.004	430.5
2629.606	431.5
2633.205	425.5
2636.801	419.5
2640.394	397.5
2643.983	393.5
2647.57	400.5
2651.153	382.5
2654.734	375.5
2658.311	382.5
2661.885	358.5
2665.456	368.5
2669.025	350.5
2672.589	342.5
2676.151	339.5
2679.71	339.5
2683.266	327.5
2686.819	309.5
2690.368	318.5
2693.915	305.5
2697.458	289.5
2700.999	290.5
2704.536	282.5
2708.071	281.5
2711.602	266.5
2715.13	262.5
2718.656	253.5
2722.178	241.5
2725.697	247.5
2729.214	239.5
2732.727	249.5
2736.237	233.5
2739.744	236.5
2743.249	240.5
2746.75	240.5
2750.248	242.5
2753.743	234.5
2757.236	253.5
2760.725	242.5
2764.211	238.5
2767.695	246.5
2771.175	244.5
2774.652	240.5
2778.127	236.5
2781.598	241.5
2785.067	235.5
2788.532	235.5
2791.995	223.5
2795.455	212.5
2798.911	228.5
2802.365	219.5
2805.816	226.5
2809.264	212.5
2812.709	214.5
2816.151	215.5
2819.59	214.5
2823.026	210.5
2826.46	208.5
2829.89	211.5
2833.318	204.5
2836.742	205.5
2840.164	201.5
2843.583	200.5
2846.999	203.5
2850.412	193.5
2853.822	191.5
2857.229	198.5
2860.634	188.5
2864.035	182.5
2867.434	187.5
2870.83	185.5
2874.223	179.5
2877.613	166.5
2881	181.5
2884.385	168.5
2887.766	158.5
2891.145	154.5
2894.521	154.5
2897.894	145.5
2901.264	146.5
2904.631	135.5
2907.996	120.5
2911.358	131.5
2914.717	127.5
2918.073	120.5
2921.426	118.5
2924.777	113.5
2928.124	100.5
2931.469	107.5
2934.811	107.5
2938.15	98.5
2941.487	96.5
2944.821	95.5
2948.152	78.5
2951.48	82.5
2954.805	82.5
2958.128	74.5
2961.447	72.5
2964.765	60.5
2968.079	66.5
2971.39	68.5
2974.699	61.5
2978.005	66.5
2981.308	61.5
2984.609	62.5
2987.907	65.5
2991.202	65.5
2994.494	57.5
2997.784	63.5
3001.07	56.5
3004.355	58.5
3007.636	51.5
3010.915	52.5
3014.191	46.5
3017.464	46.5
3020.734	46.5
3024.002	41.5
3027.267	42.5
3030.53	31.5
3033.789	33.5
3037.046	18.5
3040.301	25.5
3043.552	21.5
3046.801	20.5
3050.048	20.5
3053.291	14.5
3056.532	2.5
3059.771	13.5
3063.006	6.5
3066.239	9.5
3069.469	14.5
3072.697	6.5
3075.922	4.5
3079.144	2.5
3082.364	11.5
3085.581	2.5
3088.795	1.5
3092.007	-5.5
3095.216	1.5
3098.423	-4.5
3101.627	2.5
3104.828	-5.5
3108.026	-2.5
3111.222	-13.5
3114.416	-5.5
3117.607	-8.5
3120.795	-4.5
3123.98	-9.5
3127.163	-17.5
3130.344	-9.5
3133.521	-21.5
3136.696	-10.5
3139.869	-6.5
3143.039	-19.5
3146.206	-22.5
3149.371	-19.5
3152.533	-22.5
3155.693	-21.5
3158.85	-27.5
3162.005	-30.5
3165.157	-33.5
3168.306	-34.5
3171.453	-39.5
3174.597	-37.5
3177.739	-38.5
3180.878	-42.5
3184.014	-48.5
3187.149	-46.5
3190.28	-48.5
3193.409	-44.5
3196.536	-59.5
3199.659	-56.5
3202.781	-56.5
3205.9	-58.5
3209.016	-66.5
3212.13	-59.5
3215.241	-60.5
3218.35	-61.5
3221.456	-61.5
3224.56	-69.5
3227.661	-66.5
3230.76	-73.5
3233.856	-79.5
3236.95	-71.5
3240.041	-76.5
3243.13	-82.5
3246.216	-74.5
3249.3	-78.5
3252.382	-73.5
3255.46	-68.5
3258.537	-45.5
3261.611	-71.5
3264.682	-72.5
3267.751	-68.5
3270.818	-84.5
3273.882	-78.5
3276.943	-79.5
3280.002	-78.5
3283.059	-81.5
3286.113	-83.5
3289.165	-85.5
3292.214	-85.5
3295.261	-84.5
3298.306	-88.5
3301.348	-90.5
3304.387	-93.5
3307.425	-93.5
3310.459	-94.5
3313.492	-96.5
3316.521	-100.5
3319.549	-98.5
3322.574	-101.5
3325.597	-104.5
3328.617	-99.5
3331.635	-100.5
3334.65	-98.5
3337.663	-102.5
3340.674	-98.5
3343.682	-101.5
3346.688	-103.5
3349.691	-99.5
3352.692	-104.5
3355.691	-102.5
3358.687	-102.5
3361.681	-102.5
3364.673	-105.5
3367.662	-102.5
3370.649	-105.5
3373.633	-103.5
3376.615	-105.5
3379.595	-107.5
3382.572	-105.5
3385.547	-111.5
3388.52	-99.5
3391.49	-108.5
3394.458	-117.5
3397.424	-107.5
3400.387	-106.5
3403.348	-106.5
3406.307	-112.5
3409.263	-113.5
3412.217	-109.5
3415.168	-111.5
3418.118	-106.5
3421.065	-114.5
3424.009	-113.5
3426.951	-111.5
3429.891	-110.5
3432.829	-113.5
3435.764	-114.5
3438.697	-112.5
3441.628	-116.5
3444.557	-109.5
3447.483	-117.5
3450.407	-125.5
3453.328	-117.5
3456.247	-122.5
3459.164	-122.5
3462.079	-119.5
3464.991	-127.5
3467.902	-124.5
3470.809	-125.5
3473.715	-123.5
3476.618	-129.5
3479.519	-118.5
3482.418	-126.5
3485.315	-128.5
3488.209	-127.5
3491.101	-122.5
3493.99	-123.5
3496.878	-125.5
3499.763	-123.5
3502.646	-124.5
3505.527	-129.5
3508.405	-131.5
3511.281	-134.5
3514.155	-123.5
3517.027	-127.5
3519.897	-131.5
3522.764	-125.5
3525.629	-134.5
3528.492	-129.5
3531.352	-135.5
3534.211	-132.5
3537.067	-129.5
3539.921	-126.5
3542.773	-132.5
3545.622	-126.5
3548.469	-133.5
3551.315	-131.5
3554.157	-127.5
3556.998	-132.5
3559.837	-132.5
3562.673	-132.5
3565.507	-133.5
3568.339	-128.5
3571.169	-138.5
3573.996	-135.5
3576.822	-132.5
3579.645	-135.5
3582.466	-140.5
3585.285	-140.5
3588.101	-143.5
3590.916	-144.5
3593.728	-131.5
3596.538	-142.5
3599.346	-139.5
3602.152	-138.5
3604.956	-139.5
3607.757	-140.5
3610.556	-143.5
3613.354	-138.5
3616.149	-149.5
3618.942	-141.5
3621.732	-147.5
3624.521	-143.5
3627.307	-144.5
3630.092	-143.5
3632.874	-143.5
3635.654	-142.5
3638.432	-141.5
3641.208	-147.5
3643.982	-140.5
3646.753	-142.5
3649.523	-142.5
3652.29	-147.5
3655.055	-146.5
3657.818	-142.5
3660.579	-146.5
3663.338	-141.5
3666.095	-147.5
3668.849	-145.5
3671.602	-140.5
3674.352	-142.5
3677.101	-148.5
3679.847	-150.5
3682.591	-142.5
3685.333	-151.5
3688.073	-150.5
3690.811	-139.5
3693.547	-143.5
3696.281	-144.5
3699.013	-148.5
3701.742	-149.5
3704.47	-152.5
3707.195	-141.5
3709.919	-142.5
3712.64	-148.5
3715.359	-142.5
3718.076	-141.5
3720.792	-148.5
3723.505	-140.5
3726.216	-153.5
3728.925	-149.5
3731.632	-142.5
3734.336	-146.5
3737.039	-147.5
3739.74	-145.5
3742.439	-142.5
3745.136	-149.5
3747.83	-148.5
3750.523	-144.5
3753.213	-172.5
3755.902	-148.5
3758.589	-150.5
3761.273	-152.5
3763.956	-149.5
3766.636	-145.5
3769.315	-146.5
3771.991	-151.5
3774.665	-141.5
3777.338	-148.5
3780.008	-154.5
3782.677	-150.5
3785.343	-151.5
3788.007	-156.5
3790.67	-150.5
3793.33	-151.5
3795.989	-137.5
3798.645	-151.5
3801.299	-145.5
3803.952	-148.5
3806.602	-153.5
3809.251	-154.5
3811.897	-148.5
3814.542	-147.5
3817.184	-147.5
3819.825	-147.5
3822.463	-147.5
3825.1	-149.5
3827.735	-150.5
3830.367	-151.5
3832.998	-147.5
3835.627	-142.5
3838.253	-149.5
3840.878	-149.5
3843.501	-142.5
3846.122	-152.5
3848.741	-148.5
3851.358	-144.5
3853.973	-145.5
3856.586	-151.5
3859.197	-147.5
3861.806	-149.5
3864.414	-146.5
3867.019	-142.5
3869.622	-137.5
3872.224	-134.5
3874.823	-119.5
3877.421	-101.5
3880.016	-72.5
3882.61	-49.5
3885.202	-42.5
3887.792	-46.5
3890.38	-94.5
3892.966	-121.5
3895.55	-138.5
3898.132	-144.5
3900.713	-145.5
3903.291	-153.5
3905.868	-148.5
3908.442	-147.5
3911.015	-145.5
3913.586	-147.5
3916.155	-147.5
3918.722	-150.5
3921.287	-147.5
3923.85	-154.5
3926.411	-148.5
3928.971	-153.5
3931.528	-145.5
3934.084	-156.5
3936.638	-155.5
3939.19	-155.5
3941.74	-146.5
3944.288	-152.5
3946.834	-149.5
3949.378	-151.5
3951.921	-147.5
3954.462	-149.5
3957	-149.5
3959.537	-149.5
3962.072	-138.5
3964.606	-150.5
3967.137	-147.5
3969.667	-146.5
3972.194	-147.5
3974.72	-153.5
3977.244	-152.5
3979.766	-151.5
3982.286	-151.5
3984.805	-148.5
3987.321	-143.5
3989.836	-148.5
3992.349	-148.5
3994.86	-150.5
3997.369	-145.5
3999.877	-142.5
4002.382	-146.5
4004.886	-149.5
4007.388	-139.5
4009.888	-148.5
4012.386	-149.5
4014.883	-147.5
4017.377	-145.5
4019.87	-143.5
4022.361	-153.5
4024.85	-152.5
4027.338	-144.5
4029.823	-149.5
4032.307	-147.5
4034.789	-145.5
4037.269	-151.5
4039.747	-149.5
4042.224	-147.5
4044.699	-145.5
4047.172	-147.5
4049.643	-146.5
4052.112	-146.5
4054.58	-148.5
4057.046	-150.5
4059.51	-150.5
4061.972	-148.5
4064.432	-145.5
4066.891	-150.5
4069.348	-144.5
4071.803	-146.5
4074.256	-141.5
4076.708	-147.5
4079.158	-148.5
4081.606	-143.5
4084.052	-147.5
4086.497	-147.5
4088.939	-147.5
4091.38	-145.5
4093.819	-147.5
4096.257	-153.5
4098.693	-157.5
4101.127	-156.5
4103.559	-159.5
4105.989	-16.5
4108.418	-10.5
4110.845	-7.5
4113.27	-13.5
4115.694	-7.5
4118.115	1.5
4120.535	-143.5
4122.954	-142.5
4125.37	-141.5
4127.785	-146.5
4130.198	-147.5
4132.609	-146.5
4135.019	-153.5
4137.427	-154.5
4139.833	-156.5
4142.237	-159.5