File: Data/Raman/2017-08-29 - Alluminum 2/Aug 29 2017 - Aluminum 2/EC 110 1_RamanShift_3.txt
Data from EC 110 1_RamanShift_3.txt Node

Date: Tue Aug 29 12:09:07 IDT 2017
User: aro
Spectrometer: QEPB0276
Trigger mode: 0
Integration Time (sec): 3.000000E1
Scans to average: 1
Electric dark correction enabled: true
Nonlinearity correction enabled: false
Boxcar width: 0
XAxis mode: Raman Shifts
Number of Pixels in Spectrum: 1044
>>>>>Begin Spectral Data<<<<<
160.701	39.12
166.742	46.12
172.777	84.12
178.805	215.12
184.826	477.12
190.841	954.12
196.849	1521.12
202.85	1924.12
208.845	2098.12
214.833	2111.12
220.815	2145.12
226.789	2166.12
232.758	2232.12
238.719	2292.12
244.674	2330.12
250.623	2382.12
256.565	2416.12
262.5	2456.12
268.429	2478.12
274.351	2556.12
280.267	2596.12
286.176	2635.12
292.079	2699.12
297.975	2756.12
303.865	2808.12
309.748	2844.12
315.625	2879.12
321.495	2928.12
327.359	2944.12
333.217	2967.12
339.068	2994.12
344.912	3041.12
350.751	3092.12
356.583	3099.12
362.408	3183.12
368.227	3240.12
374.04	3412.12
379.847	3698.12
385.647	3810.12
391.44	3674.12
397.228	3497.12
403.009	3517.12
408.784	3855.12
414.553	4654.12
420.315	5576.12
426.071	5612.12
431.821	4680.12
437.565	3862.12
443.302	3638.12
449.033	3477.12
454.758	3399.12
460.477	3308.12
466.189	3224.12
471.896	3137.12
477.596	3109.12
483.29	3080.12
488.978	3083.12
494.66	3015.12
500.335	2860.12
506.005	2602.12
511.668	2292.12
517.325	2010.12
522.977	1802.12
528.622	1649.12
534.261	1536.12
539.894	1450.12
545.521	1377.12
551.141	1361.12
556.756	1325.12
562.365	1273.12
567.968	1274.12
573.565	1288.12
579.155	1287.12
584.74	1289.12
590.319	1265.12
595.892	1227.12
601.459	1265.12
607.02	1262.12
612.575	1246.12
618.124	1194.12
623.667	1175.12
629.204	1164.12
634.735	1247.12
640.261	1417.12
645.781	1693.12
651.294	1811.12
656.802	1602.12
662.304	1264.12
667.8	1106.12
673.29	1037.12
678.775	991.12
684.254	981.12
689.726	961.12
695.193	959.12
700.655	925.12
706.11	923.12
711.56	933.12
717.004	913.12
722.442	927.12
727.874	933.12
733.301	954.12
738.722	976.12
744.137	1027.12
749.547	1110.12
754.951	1147.12
760.349	1135.12
765.741	1079.12
771.128	1051.12
776.509	1081.12
781.885	1123.12
787.254	1160.12
792.618	1184.12
797.977	1192.12
803.33	1169.12
808.677	1178.12
814.019	1148.12
819.355	1142.12
824.686	1110.12
830.011	1094.12
835.33	1053.12
840.644	1043.12
845.952	1008.12
851.255	962.12
856.552	921.12
861.844	893.12
867.13	854.12
872.41	836.12
877.686	811.12
882.955	805.12
888.219	802.12
893.478	777.12
898.731	775.12
903.979	770.12
909.221	770.12
914.458	754.12
919.69	757.12
924.916	746.12
930.136	768.12
935.351	754.12
940.561	753.12
945.766	749.12
950.965	743.12
956.158	750.12
961.347	727.12
966.529	732.12
971.707	707.12
976.879	715.12
982.046	716.12
987.208	708.12
992.364	704.12
997.515	722.12
1002.66	716.12
1007.801	727.12
1012.936	747.12
1018.066	740.12
1023.19	754.12
1028.309	764.12
1033.423	786.12
1038.532	785.12
1043.636	798.12
1048.734	801.12
1053.827	812.12
1058.915	798.12
1063.998	797.12
1069.075	802.12
1074.147	792.12
1079.214	798.12
1084.276	783.12
1089.333	788.12
1094.385	771.12
1099.431	757.12
1104.472	759.12
1109.509	734.12
1114.54	724.12
1119.565	708.12
1124.586	688.12
1129.602	679.12
1134.613	683.12
1139.618	676.12
1144.619	676.12
1149.614	687.12
1154.604	692.12
1159.589	702.12
1164.57	702.12
1169.545	718.12
1174.515	730.12
1179.48	716.12
1184.44	721.12
1189.395	707.12
1194.345	717.12
1199.29	708.12
1204.23	711.12
1209.165	713.12
1214.095	707.12
1219.021	712.12
1223.941	720.12
1228.856	714.12
1233.766	719.12
1238.672	709.12
1243.572	685.12
1248.467	686.12
1253.358	679.12
1258.244	661.12
1263.124	640.12
1268	626.12
1272.871	615.12
1277.737	598.12
1282.599	603.12
1287.455	602.12
1292.306	605.12
1297.153	627.12
1301.995	612.12
1306.832	618.12
1311.664	619.12
1316.491	613.12
1321.314	598.12
1326.132	609.12
1330.945	601.12
1335.753	593.12
1340.556	583.12
1345.354	579.12
1350.148	571.12
1354.937	574.12
1359.722	577.12
1364.501	580.12
1369.276	561.12
1374.046	577.12
1378.811	577.12
1383.572	574.12
1388.327	573.12
1393.079	564.12
1397.825	535.12
1402.567	533.12
1407.304	519.12
1412.036	518.12
1416.764	516.12
1421.487	516.12
1426.205	511.12
1430.919	515.12
1435.628	532.12
1440.333	532.12
1445.032	535.12
1449.727	540.12
1454.418	547.12
1459.104	546.12
1463.785	537.12
1468.462	530.12
1473.134	532.12
1477.802	525.12
1482.465	517.12
1487.123	521.12
1491.777	530.12
1496.426	522.12
1501.071	532.12
1505.711	554.12
1510.347	557.12
1514.978	558.12
1519.604	563.12
1524.226	564.12
1528.844	539.12
1533.457	546.12
1538.065	528.12
1542.669	511.12
1547.269	519.12
1551.864	512.12
1556.454	526.12
1561.041	533.12
1565.622	518.12
1570.199	491.12
1574.772	485.12
1579.34	484.12
1583.904	492.12
1588.464	479.12
1593.019	483.12
1597.569	489.12
1602.115	470.12
1606.657	475.12
1611.195	471.12
1615.728	449.12
1620.256	467.12
1624.78	456.12
1629.3	455.12
1633.816	450.12
1638.327	461.12
1642.834	466.12
1647.336	473.12
1651.834	473.12
1656.328	468.12
1660.817	473.12
1665.302	475.12
1669.783	464.12
1674.259	479.12
1678.732	463.12
1683.199	469.12
1687.663	463.12
1692.122	462.12
1696.577	461.12
1701.028	461.12
1705.474	461.12
1709.917	468.12
1714.355	452.12
1718.788	449.12
1723.218	435.12
1727.643	446.12
1732.064	417.12
1736.481	409.12
1740.893	404.12
1745.301	400.12
1749.705	371.12
1754.105	375.12
1758.501	365.12
1762.893	363.12
1767.28	358.12
1771.663	352.12
1776.042	357.12
1780.417	366.12
1784.787	362.12
1789.154	373.12
1793.516	363.12
1797.874	381.12
1802.228	369.12
1806.578	381.12
1810.924	373.12
1815.266	365.12
1819.603	354.12
1823.937	339.12
1828.266	335.12
1832.591	340.12
1836.913	325.12
1841.23	324.12
1845.543	331.12
1849.852	330.12
1854.156	329.12
1858.457	315.12
1862.754	336.12
1867.047	333.12
1871.335	329.12
1875.62	333.12
1879.9	337.12
1884.177	331.12
1888.449	330.12
1892.718	329.12
1896.982	332.12
1901.243	320.12
1905.499	324.12
1909.752	326.12
1914	331.12
1918.245	333.12
1922.485	341.12
1926.722	338.12
1930.954	337.12
1935.183	339.12
1939.408	341.12
1943.628	343.12
1947.845	344.12
1952.058	341.12
1956.267	322.12
1960.472	317.12
1964.673	311.12
1968.87	292.12
1973.063	290.12
1977.252	284.12
1981.438	285.12
1985.619	289.12
1989.797	274.12
1993.971	268.12
1998.14	272.12
2002.306	266.12
2006.469	267.12
2010.627	267.12
2014.781	264.12
2018.932	263.12
2023.078	262.12
2027.221	261.12
2031.36	255.12
2035.495	249.12
2039.627	247.12
2043.754	250.12
2047.878	251.12
2051.998	239.12
2056.114	240.12
2060.226	246.12
2064.334	247.12
2068.439	257.12
2072.54	246.12
2076.637	256.12
2080.73	254.12
2084.82	258.12
2088.906	255.12
2092.988	259.12
2097.066	265.12
2101.14	256.12
2105.211	247.12
2109.278	245.12
2113.342	246.12
2117.401	243.12
2121.457	231.12
2125.509	231.12
2129.558	236.12
2133.602	224.12
2137.643	216.12
2141.681	220.12
2145.714	224.12
2149.744	209.12
2153.77	210.12
2157.793	216.12
2161.812	219.12
2165.827	216.12
2169.838	198.12
2173.846	204.12
2177.851	198.12
2181.851	194.12
2185.848	188.12
2189.841	193.12
2193.831	188.12
2197.817	177.12
2201.799	185.12
2205.778	184.12
2209.753	177.12
2213.725	181.12
2217.693	182.12
2221.657	190.12
2225.618	187.12
2229.575	185.12
2233.529	185.12
2237.479	184.12
2241.425	186.12
2245.368	185.12
2249.307	176.12
2253.243	177.12
2257.175	161.12
2261.104	167.12
2265.029	164.12
2268.95	157.12
2272.868	159.12
2276.783	158.12
2280.694	151.12
2284.601	156.12
2288.505	160.12
2292.405	154.12
2296.302	144.12
2300.195	141.12
2304.085	138.12
2307.971	137.12
2311.854	140.12
2315.734	138.12
2319.609	140.12
2323.482	139.12
2327.351	150.12
2331.216	175.12
2335.078	178.12
2338.937	156.12
2342.792	132.12
2346.643	122.12
2350.492	126.12
2354.336	129.12
2358.178	125.12
2362.015	120.12
2365.85	124.12
2369.681	132.12
2373.508	126.12
2377.333	125.12
2381.153	122.12
2384.971	128.12
2388.785	122.12
2392.595	117.12
2396.402	117.12
2400.206	120.12
2404.007	120.12
2407.804	115.12
2411.597	121.12
2415.388	114.12
2419.174	113.12
2422.958	113.12
2426.738	119.12
2430.515	111.12
2434.289	110.12
2438.059	105.12
2441.825	111.12
2445.589	104.12
2449.349	113.12
2453.106	106.12
2456.859	105.12
2460.61	97.12
2464.356	97.12
2468.1	96.12
2471.84	95.12
2475.577	96.12
2479.311	93.12
2483.041	99.12
2486.768	89.12
2490.492	87.12
2494.213	94.12
2497.93	91.12
2501.644	87.12
2505.355	89.12
2509.062	87.12
2512.766	84.12
2516.467	84.12
2520.165	78.12
2523.859	82.12
2527.551	83.12
2531.239	79.12
2534.923	84.12
2538.605	80.12
2542.283	76.12
2545.958	85.12
2549.63	81.12
2553.299	82.12
2556.964	77.12
2560.626	74.12
2564.285	74.12
2567.941	82.12
2571.594	81.12
2575.243	72.12
2578.89	81.12
2582.533	78.12
2586.173	70.12
2589.809	75.12
2593.443	70.12
2597.073	67.12
2600.701	73.12
2604.325	73.12
2607.946	74.12
2611.564	64.12
2615.178	66.12
2618.79	61.12
2622.398	65.12
2626.004	54.12
2629.606	59.12
2633.205	63.12
2636.801	55.12
2640.394	53.12
2643.983	57.12
2647.57	57.12
2651.153	49.12
2654.734	48.12
2658.311	50.12
2661.885	47.12
2665.456	47.12
2669.025	40.12
2672.589	47.12
2676.151	40.12
2679.71	38.12
2683.266	47.12
2686.819	37.12
2690.368	39.12
2693.915	39.12
2697.458	33.12
2700.999	34.12
2704.536	31.12
2708.071	31.12
2711.602	26.12
2715.13	27.12
2718.656	25.12
2722.178	26.12
2725.697	20.12
2729.214	25.12
2732.727	27.12
2736.237	31.12
2739.744	23.12
2743.249	31.12
2746.75	25.12
2750.248	23.12
2753.743	26.12
2757.236	22.12
2760.725	19.12
2764.211	18.12
2767.695	27.12
2771.175	23.12
2774.652	21.12
2778.127	23.12
2781.598	16.12
2785.067	15.12
2788.532	20.12
2791.995	9.12
2795.455	18.12
2798.911	14.12
2802.365	12.12
2805.816	18.12
2809.264	5.12
2812.709	17.12
2816.151	15.12
2819.59	24.12
2823.026	19.12
2826.46	12.12
2829.89	10.12
2833.318	9.12
2836.742	18.12
2840.164	8.12
2843.583	12.12
2846.999	16.12
2850.412	7.12
2853.822	16.12
2857.229	12.12
2860.634	7.12
2864.035	13.12
2867.434	12.12
2870.83	11.12
2874.223	9.12
2877.613	2.12
2881	-2.88
2884.385	-1.88
2887.766	-0.88
2891.145	-1.88
2894.521	5.12
2897.894	-7.88
2901.264	-13.88
2904.631	-7.88
2907.996	-14.88
2911.358	-9.88
2914.717	-10.88
2918.073	-20.88
2921.426	-15.88
2924.777	-21.88
2928.124	-19.88
2931.469	-15.88
2934.811	-16.88
2938.15	-12.88
2941.487	-10.88
2944.821	-19.88
2948.152	-24.88
2951.48	-18.88
2954.805	-16.88
2958.128	-17.88
2961.447	-21.88
2964.765	-21.88
2968.079	-23.88
2971.39	-23.88
2974.699	-17.88
2978.005	-23.88
2981.308	-22.88
2984.609	-34.88
2987.907	-18.88
2991.202	-30.88
2994.494	-18.88
2997.784	-16.88
3001.07	-29.88
3004.355	-31.88
3007.636	-27.88
3010.915	-27.88
3014.191	-27.88
3017.464	-28.88
3020.734	-25.88
3024.002	-34.88
3027.267	-27.88
3030.53	-30.88
3033.789	-23.88
3037.046	-32.88
3040.301	-37.88
3043.552	-35.88
3046.801	-34.88
3050.048	-40.88
3053.291	-38.88
3056.532	-43.88
3059.771	-31.88
3063.006	-45.88
3066.239	-35.88
3069.469	-38.88
3072.697	-46.88
3075.922	-41.88
3079.144	-40.88
3082.364	-41.88
3085.581	-46.88
3088.795	-46.88
3092.007	-49.88
3095.216	-47.88
3098.423	-48.88
3101.627	-49.88
3104.828	-45.88
3108.026	-42.88
3111.222	-46.88
3114.416	-40.88
3117.607	-47.88
3120.795	-47.88
3123.98	-54.88
3127.163	-47.88
3130.344	-48.88
3133.521	-50.88
3136.696	-45.88
3139.869	-48.88
3143.039	-50.88
3146.206	-51.88
3149.371	-49.88
3152.533	-50.88
3155.693	-59.88
3158.85	-50.88
3162.005	-59.88
3165.157	-48.88
3168.306	-48.88
3171.453	-51.88
3174.597	-58.88
3177.739	-54.88
3180.878	-61.88
3184.014	-56.88
3187.149	-52.88
3190.28	-57.88
3193.409	-52.88
3196.536	-62.88
3199.659	-57.88
3202.781	-60.88
3205.9	-57.88
3209.016	-68.88
3212.13	-68.88
3215.241	-60.88
3218.35	-56.88
3221.456	-62.88
3224.56	-63.88
3227.661	-59.88
3230.76	-69.88
3233.856	-69.88
3236.95	-65.88
3240.041	-62.88
3243.13	-67.88
3246.216	-62.88
3249.3	-68.88
3252.382	-64.88
3255.46	-66.88
3258.537	-39.88
3261.611	-63.88
3264.682	-66.88
3267.751	-62.88
3270.818	-66.88
3273.882	-69.88
3276.943	-69.88
3280.002	-66.88
3283.059	-71.88
3286.113	-70.88
3289.165	-65.88
3292.214	-72.88
3295.261	-66.88
3298.306	-69.88
3301.348	-73.88
3304.387	-73.88
3307.425	-72.88
3310.459	-69.88
3313.492	-74.88
3316.521	-78.88
3319.549	-74.88
3322.574	-75.88
3325.597	-76.88
3328.617	-71.88
3331.635	-73.88
3334.65	-70.88
3337.663	-74.88
3340.674	-74.88
3343.682	-73.88
3346.688	-75.88
3349.691	-71.88
3352.692	-76.88
3355.691	-76.88
3358.687	-69.88
3361.681	-77.88
3364.673	-78.88
3367.662	-72.88
3370.649	-76.88
3373.633	-76.88
3376.615	-72.88
3379.595	-74.88
3382.572	-74.88
3385.547	-75.88
3388.52	-72.88
3391.49	-73.88
3394.458	-80.88
3397.424	-69.88
3400.387	-74.88
3403.348	-75.88
3406.307	-74.88
3409.263	-74.88
3412.217	-76.88
3415.168	-79.88
3418.118	-72.88
3421.065	-76.88
3424.009	-73.88
3426.951	-83.88
3429.891	-74.88
3432.829	-76.88
3435.764	-79.88
3438.697	-78.88
3441.628	-76.88
3444.557	-78.88
3447.483	-80.88
3450.407	-83.88
3453.328	-78.88
3456.247	-84.88
3459.164	-80.88
3462.079	-85.88
3464.991	-84.88
3467.902	-89.88
3470.809	-87.88
3473.715	-81.88
3476.618	-89.88
3479.519	-79.88
3482.418	-81.88
3485.315	-88.88
3488.209	-84.88
3491.101	-83.88
3493.99	-82.88
3496.878	-87.88
3499.763	-88.88
3502.646	-81.88
3505.527	-88.88
3508.405	-90.88
3511.281	-88.88
3514.155	-80.88
3517.027	-81.88
3519.897	-81.88
3522.764	-82.88
3525.629	-86.88
3528.492	-81.88
3531.352	-83.88
3534.211	-85.88
3537.067	-82.88
3539.921	-79.88
3542.773	-84.88
3545.622	-82.88
3548.469	-85.88
3551.315	-74.88
3554.157	-78.88
3556.998	-87.88
3559.837	-80.88
3562.673	-84.88
3565.507	-85.88
3568.339	-80.88
3571.169	-81.88
3573.996	-86.88
3576.822	-76.88
3579.645	-83.88
3582.466	-82.88
3585.285	-81.88
3588.101	-89.88
3590.916	-88.88
3593.728	-82.88
3596.538	-85.88
3599.346	-84.88
3602.152	-88.88
3604.956	-80.88
3607.757	-85.88
3610.556	-87.88
3613.354	-81.88
3616.149	-92.88
3618.942	-87.88
3621.732	-89.88
3624.521	-89.88
3627.307	-91.88
3630.092	-88.88
3632.874	-84.88
3635.654	-84.88
3638.432	-84.88
3641.208	-88.88
3643.982	-89.88
3646.753	-94.88
3649.523	-85.88
3652.29	-93.88
3655.055	-88.88
3657.818	-86.88
3660.579	-90.88
3663.338	-96.88
3666.095	-89.88
3668.849	-94.88
3671.602	-88.88
3674.352	-88.88
3677.101	-92.88
3679.847	-96.88
3682.591	-89.88
3685.333	-92.88
3688.073	-92.88
3690.811	-85.88
3693.547	-85.88
3696.281	-87.88
3699.013	-92.88
3701.742	-91.88
3704.47	-95.88
3707.195	-89.88
3709.919	-90.88
3712.64	-95.88
3715.359	-92.88
3718.076	-85.88
3720.792	-91.88
3723.505	-90.88
3726.216	-93.88
3728.925	-90.88
3731.632	-93.88
3734.336	-86.88
3737.039	-92.88
3739.74	-88.88
3742.439	-89.88
3745.136	-93.88
3747.83	-94.88
3750.523	-88.88
3753.213	-106.88
3755.902	-92.88
3758.589	-93.88
3761.273	-92.88
3763.956	-90.88
3766.636	-91.88
3769.315	-91.88
3771.991	-90.88
3774.665	-84.88
3777.338	-93.88
3780.008	-101.88
3782.677	-90.88
3785.343	-92.88
3788.007	-99.88
3790.67	-88.88
3793.33	-89.88
3795.989	-90.88
3798.645	-95.88
3801.299	-90.88
3803.952	-92.88
3806.602	-93.88
3809.251	-94.88
3811.897	-95.88
3814.542	-94.88
3817.184	-91.88
3819.825	-96.88
3822.463	-90.88
3825.1	-95.88
3827.735	-93.88
3830.367	-91.88
3832.998	-92.88
3835.627	-88.88
3838.253	-92.88
3840.878	-94.88
3843.501	-91.88
3846.122	-95.88
3848.741	-92.88
3851.358	-95.88
3853.973	-87.88
3856.586	-93.88
3859.197	-89.88
3861.806	-88.88
3864.414	-89.88
3867.019	-84.88
3869.622	-79.88
3872.224	-63.88
3874.823	-37.88
3877.421	-16.88
3880.016	29.12
3882.61	68.12
3885.202	96.12
3887.792	67.12
3890.38	-0.88
3892.966	-42.88
3895.55	-70.88
3898.132	-83.88
3900.713	-90.88
3903.291	-88.88
3905.868	-90.88
3908.442	-86.88
3911.015	-87.88
3913.586	-89.88
3916.155	-89.88
3918.722	-91.88
3921.287	-95.88
3923.85	-95.88
3926.411	-89.88
3928.971	-90.88
3931.528	-88.88
3934.084	-94.88
3936.638	-97.88
3939.19	-97.88
3941.74	-92.88
3944.288	-92.88
3946.834	-90.88
3949.378	-94.88
3951.921	-89.88
3954.462	-89.88
3957	-89.88
3959.537	-84.88
3962.072	-79.88
3964.606	-91.88
3967.137	-89.88
3969.667	-89.88
3972.194	-92.88
3974.72	-93.88
3977.244	-91.88
3979.766	-95.88
3982.286	-94.88
3984.805	-93.88
3987.321	-91.88
3989.836	-91.88
3992.349	-92.88
3994.86	-98.88
3997.369	-100.88
3999.877	-83.88
4002.382	-90.88
4004.886	-90.88
4007.388	-87.88
4009.888	-92.88
4012.386	-93.88
4014.883	-96.88
4017.377	-86.88
4019.87	-87.88
4022.361	-91.88
4024.85	-95.88
4027.338	-90.88
4029.823	-89.88
4032.307	-88.88
4034.789	-92.88
4037.269	-91.88
4039.747	-88.88
4042.224	-90.88
4044.699	-89.88
4047.172	-90.88
4049.643	-85.88
4052.112	-91.88
4054.58	-93.88
4057.046	-84.88
4059.51	-89.88
4061.972	-92.88
4064.432	-82.88
4066.891	-91.88
4069.348	-82.88
4071.803	-90.88
4074.256	-83.88
4076.708	-87.88
4079.158	-91.88
4081.606	-90.88
4084.052	-93.88
4086.497	-91.88
4088.939	-94.88
4091.38	-89.88
4093.819	-94.88
4096.257	-90.88
4098.693	-95.88
4101.127	-95.88
4103.559	-94.88
4105.989	59.12
4108.418	55.12
4110.845	55.12
4113.27	37.12
4115.694	41.12
4118.115	38.12
4120.535	-92.88
4122.954	-86.88
4125.37	-92.88
4127.785	-91.88
4130.198	-87.88
4132.609	-91.88
4135.019	-96.88
4137.427	-94.88
4139.833	-95.88
4142.237	-96.88