File: Data/Raman/2017-08-29 - Alluminum 2/Aug 29 2017 - Aluminum 2/EC 11 2_RamanShift_2.txt
Data from EC 11 2_RamanShift_2.txt Node

Date: Tue Aug 29 12:18:37 IDT 2017
User: aro
Spectrometer: QEPB0276
Trigger mode: 0
Integration Time (sec): 3.000000E1
Scans to average: 1
Electric dark correction enabled: true
Nonlinearity correction enabled: false
Boxcar width: 0
XAxis mode: Raman Shifts
Number of Pixels in Spectrum: 1044
>>>>>Begin Spectral Data<<<<<
160.701	16.62
166.742	56.62
172.777	157.62
178.805	471.62
184.826	1245.62
190.841	2574.62
196.849	4152.62
202.85	5326.62
208.845	5858.62
214.833	5979.62
220.815	6147.62
226.789	6287.62
232.758	6509.62
238.719	6720.62
244.674	6826.62
250.623	6937.62
256.565	7035.62
262.5	7132.62
268.429	7202.62
274.351	7266.62
280.267	7374.62
286.176	7452.62
292.079	7580.62
297.975	7684.62
303.865	7721.62
309.748	7774.62
315.625	7842.62
321.495	7880.62
327.359	7909.62
333.217	7915.62
339.068	7978.62
344.912	7955.62
350.751	7996.62
356.583	8026.62
362.408	8034.62
368.227	8101.62
374.04	8235.62
379.847	8395.62
385.647	8500.62
391.44	8421.62
397.228	8309.62
403.009	8321.62
408.784	8598.62
414.553	9140.62
420.315	9879.62
426.071	9860.62
431.821	9173.62
437.565	8560.62
443.302	8380.62
449.033	8263.62
454.758	8181.62
460.477	8129.62
466.189	8049.62
471.896	8001.62
477.596	7955.62
483.29	7932.62
488.978	7929.62
494.66	7880.62
500.335	7742.62
506.005	7514.62
511.668	7235.62
517.325	6995.62
522.977	6812.62
528.622	6725.62
534.261	6592.62
539.894	6518.62
545.521	6448.62
551.141	6401.62
556.756	6421.62
562.365	6369.62
567.968	6338.62
573.565	6335.62
579.155	6315.62
584.74	6333.62
590.319	6288.62
595.892	6234.62
601.459	6222.62
607.02	6207.62
612.575	6161.62
618.124	6166.62
623.667	6071.62
629.204	6072.62
634.735	6103.62
640.261	6227.62
645.781	6396.62
651.294	6506.62
656.802	6323.62
662.304	6049.62
667.8	5915.62
673.29	5896.62
678.775	5828.62
684.254	5829.62
689.726	5790.62
695.193	5786.62
700.655	5750.62
706.11	5719.62
711.56	5674.62
717.004	5657.62
722.442	5637.62
727.874	5630.62
733.301	5597.62
738.722	5622.62
744.137	5645.62
749.547	5713.62
754.951	5744.62
760.349	5739.62
765.741	5688.62
771.128	5677.62
776.509	5663.62
781.885	5708.62
787.254	5744.62
792.618	5756.62
797.977	5735.62
803.33	5659.62
808.677	5644.62
814.019	5613.62
819.355	5558.62
824.686	5531.62
830.011	5523.62
835.33	5482.62
840.644	5497.62
845.952	5462.62
851.255	5458.62
856.552	5412.62
861.844	5412.62
867.13	5375.62
872.41	5342.62
877.686	5336.62
882.955	5269.62
888.219	5221.62
893.478	5158.62
898.731	5113.62
903.979	5118.62
909.221	5074.62
914.458	5033.62
919.69	5091.62
924.916	5073.62
930.136	5075.62
935.351	5087.62
940.561	5091.62
945.766	5065.62
950.965	5081.62
956.158	5036.62
961.347	4952.62
966.529	4912.62
971.707	4862.62
976.879	4809.62
982.046	4776.62
987.208	4757.62
992.364	4759.62
997.515	4798.62
1002.66	4795.62
1007.801	4836.62
1012.936	4878.62
1018.066	4915.62
1023.19	4938.62
1028.309	4910.62
1033.423	4931.62
1038.532	4896.62
1043.636	4848.62
1048.734	4816.62
1053.827	4782.62
1058.915	4706.62
1063.998	4712.62
1069.075	4690.62
1074.147	4675.62
1079.214	4686.62
1084.276	4692.62
1089.333	4729.62
1094.385	4727.62
1099.431	4716.62
1104.472	4718.62
1109.509	4709.62
1114.54	4616.62
1119.565	4533.62
1124.586	4532.62
1129.602	4422.62
1134.613	4387.62
1139.618	4384.62
1144.619	4375.62
1149.614	4399.62
1154.604	4389.62
1159.589	4420.62
1164.57	4416.62
1169.545	4402.62
1174.515	4436.62
1179.48	4405.62
1184.44	4326.62
1189.395	4321.62
1194.345	4258.62
1199.29	4274.62
1204.23	4253.62
1209.165	4267.62
1214.095	4288.62
1219.021	4329.62
1223.941	4332.62
1228.856	4348.62
1233.766	4345.62
1238.672	4316.62
1243.572	4306.62
1248.467	4303.62
1253.358	4209.62
1258.244	4144.62
1263.124	4069.62
1268	3994.62
1272.871	3942.62
1277.737	3927.62
1282.599	3903.62
1287.455	3904.62
1292.306	3900.62
1297.153	3920.62
1301.995	3917.62
1306.832	3918.62
1311.664	3908.62
1316.491	3883.62
1321.314	3830.62
1326.132	3787.62
1330.945	3738.62
1335.753	3633.62
1340.556	3556.62
1345.354	3474.62
1350.148	3434.62
1354.937	3409.62
1359.722	3380.62
1364.501	3417.62
1369.276	3446.62
1374.046	3498.62
1378.811	3556.62
1383.572	3584.62
1388.327	3606.62
1393.079	3574.62
1397.825	3529.62
1402.567	3466.62
1407.304	3396.62
1412.036	3332.62
1416.764	3302.62
1421.487	3307.62
1426.205	3275.62
1430.919	3260.62
1435.628	3274.62
1440.333	3296.62
1445.032	3292.62
1449.727	3259.62
1454.418	3277.62
1459.104	3212.62
1463.785	3168.62
1468.462	3123.62
1473.134	3093.62
1477.802	3003.62
1482.465	2990.62
1487.123	2950.62
1491.777	2964.62
1496.426	2975.62
1501.071	3018.62
1505.711	3056.62
1510.347	3111.62
1514.978	3171.62
1519.604	3185.62
1524.226	3219.62
1528.844	3187.62
1533.457	3172.62
1538.065	3180.62
1542.669	3123.62
1547.269	3103.62
1551.864	3068.62
1556.454	3066.62
1561.041	3055.62
1565.622	3006.62
1570.199	2971.62
1574.772	2954.62
1579.34	2941.62
1583.904	2972.62
1588.464	2924.62
1593.019	2873.62
1597.569	2857.62
1602.115	2814.62
1606.657	2750.62
1611.195	2712.62
1615.728	2662.62
1620.256	2643.62
1624.78	2593.62
1629.3	2584.62
1633.816	2577.62
1638.327	2575.62
1642.834	2573.62
1647.336	2587.62
1651.834	2599.62
1656.328	2604.62
1660.817	2590.62
1665.302	2592.62
1669.783	2555.62
1674.259	2526.62
1678.732	2471.62
1683.199	2420.62
1687.663	2370.62
1692.122	2323.62
1696.577	2336.62
1701.028	2368.62
1705.474	2398.62
1709.917	2468.62
1714.355	2504.62
1718.788	2516.62
1723.218	2514.62
1727.643	2454.62
1732.064	2441.62
1736.481	2408.62
1740.893	2325.62
1745.301	2278.62
1749.705	2216.62
1754.105	2165.62
1758.501	2111.62
1762.893	2051.62
1767.28	2022.62
1771.663	1975.62
1776.042	1953.62
1780.417	1933.62
1784.787	1912.62
1789.154	1959.62
1793.516	2007.62
1797.874	2014.62
1802.228	2083.62
1806.578	2091.62
1810.924	2102.62
1815.266	2078.62
1819.603	2065.62
1823.937	2012.62
1828.266	1993.62
1832.591	1956.62
1836.913	1947.62
1841.23	1901.62
1845.543	1887.62
1849.852	1889.62
1854.156	1887.62
1858.457	1876.62
1862.754	1860.62
1867.047	1874.62
1871.335	1874.62
1875.62	1862.62
1879.9	1860.62
1884.177	1834.62
1888.449	1808.62
1892.718	1793.62
1896.982	1789.62
1901.243	1732.62
1905.499	1748.62
1909.752	1746.62
1914	1742.62
1918.245	1761.62
1922.485	1771.62
1926.722	1811.62
1930.954	1820.62
1935.183	1847.62
1939.408	1864.62
1943.628	1869.62
1947.845	1872.62
1952.058	1843.62
1956.267	1838.62
1960.472	1790.62
1964.673	1755.62
1968.87	1717.62
1973.063	1697.62
1977.252	1674.62
1981.438	1647.62
1985.619	1620.62
1989.797	1604.62
1993.971	1602.62
1998.14	1569.62
2002.306	1558.62
2006.469	1565.62
2010.627	1564.62
2014.781	1551.62
2018.932	1522.62
2023.078	1502.62
2027.221	1490.62
2031.36	1440.62
2035.495	1423.62
2039.627	1385.62
2043.754	1394.62
2047.878	1383.62
2051.998	1367.62
2056.114	1363.62
2060.226	1345.62
2064.334	1355.62
2068.439	1352.62
2072.54	1378.62
2076.637	1374.62
2080.73	1379.62
2084.82	1388.62
2088.906	1401.62
2092.988	1408.62
2097.066	1391.62
2101.14	1377.62
2105.211	1380.62
2109.278	1360.62
2113.342	1359.62
2117.401	1334.62
2121.457	1340.62
2125.509	1331.62
2129.558	1320.62
2133.602	1308.62
2137.643	1301.62
2141.681	1299.62
2145.714	1307.62
2149.744	1285.62
2153.77	1269.62
2157.793	1276.62
2161.812	1249.62
2165.827	1217.62
2169.838	1215.62
2173.846	1207.62
2177.851	1186.62
2181.851	1144.62
2185.848	1143.62
2189.841	1129.62
2193.831	1132.62
2197.817	1130.62
2201.799	1119.62
2205.778	1120.62
2209.753	1121.62
2213.725	1123.62
2217.693	1112.62
2221.657	1108.62
2225.618	1101.62
2229.575	1098.62
2233.529	1097.62
2237.479	1095.62
2241.425	1087.62
2245.368	1078.62
2249.307	1048.62
2253.243	1048.62
2257.175	1030.62
2261.104	1038.62
2265.029	1013.62
2268.95	1004.62
2272.868	1001.62
2276.783	982.62
2280.694	988.62
2284.601	966.62
2288.505	968.62
2292.405	962.62
2296.302	953.62
2300.195	947.62
2304.085	932.62
2307.971	922.62
2311.854	912.62
2315.734	902.62
2319.609	889.62
2323.482	892.62
2327.351	914.62
2331.216	926.62
2335.078	939.62
2338.937	907.62
2342.792	875.62
2346.643	859.62
2350.492	872.62
2354.336	859.62
2358.178	864.62
2362.015	863.62
2365.85	879.62
2369.681	864.62
2373.508	865.62
2377.333	877.62
2381.153	869.62
2384.971	871.62
2388.785	863.62
2392.595	870.62
2396.402	862.62
2400.206	855.62
2404.007	839.62
2407.804	840.62
2411.597	837.62
2415.388	829.62
2419.174	827.62
2422.958	833.62
2426.738	830.62
2430.515	806.62
2434.289	812.62
2438.059	796.62
2441.825	788.62
2445.589	774.62
2449.349	764.62
2453.106	762.62
2456.859	752.62
2460.61	738.62
2464.356	735.62
2468.1	725.62
2471.84	715.62
2475.577	713.62
2479.311	709.62
2483.041	717.62
2486.768	707.62
2490.492	692.62
2494.213	703.62
2497.93	695.62
2501.644	699.62
2505.355	679.62
2509.062	680.62
2512.766	676.62
2516.467	677.62
2520.165	673.62
2523.859	648.62
2527.551	663.62
2531.239	647.62
2534.923	645.62
2538.605	647.62
2542.283	646.62
2545.958	655.62
2549.63	648.62
2553.299	649.62
2556.964	645.62
2560.626	640.62
2564.285	638.62
2567.941	637.62
2571.594	630.62
2575.243	628.62
2578.89	614.62
2582.533	622.62
2586.173	614.62
2589.809	607.62
2593.443	597.62
2597.073	586.62
2600.701	588.62
2604.325	579.62
2607.946	587.62
2611.564	566.62
2615.178	568.62
2618.79	555.62
2622.398	567.62
2626.004	551.62
2629.606	538.62
2633.205	541.62
2636.801	518.62
2640.394	522.62
2643.983	505.62
2647.57	497.62
2651.153	482.62
2654.734	483.62
2658.311	487.62
2661.885	463.62
2665.456	462.62
2669.025	445.62
2672.589	450.62
2676.151	445.62
2679.71	454.62
2683.266	429.62
2686.819	418.62
2690.368	414.62
2693.915	405.62
2697.458	387.62
2700.999	383.62
2704.536	374.62
2708.071	367.62
2711.602	355.62
2715.13	344.62
2718.656	341.62
2722.178	321.62
2725.697	316.62
2729.214	315.62
2732.727	324.62
2736.237	304.62
2739.744	307.62
2743.249	309.62
2746.75	303.62
2750.248	302.62
2753.743	315.62
2757.236	322.62
2760.725	311.62
2764.211	305.62
2767.695	313.62
2771.175	312.62
2774.652	310.62
2778.127	319.62
2781.598	300.62
2785.067	289.62
2788.532	288.62
2791.995	295.62
2795.455	287.62
2798.911	288.62
2802.365	270.62
2805.816	299.62
2809.264	282.62
2812.709	274.62
2816.151	277.62
2819.59	278.62
2823.026	266.62
2826.46	256.62
2829.89	263.62
2833.318	249.62
2836.742	264.62
2840.164	250.62
2843.583	256.62
2846.999	255.62
2850.412	252.62
2853.822	251.62
2857.229	258.62
2860.634	247.62
2864.035	247.62
2867.434	251.62
2870.83	250.62
2874.223	254.62
2877.613	232.62
2881	230.62
2884.385	228.62
2887.766	218.62
2891.145	222.62
2894.521	211.62
2897.894	202.62
2901.264	200.62
2904.631	182.62
2907.996	187.62
2911.358	185.62
2914.717	176.62
2918.073	172.62
2921.426	163.62
2924.777	165.62
2928.124	164.62
2931.469	162.62
2934.811	157.62
2938.15	148.62
2941.487	140.62
2944.821	138.62
2948.152	125.62
2951.48	120.62
2954.805	128.62
2958.128	117.62
2961.447	111.62
2964.765	108.62
2968.079	114.62
2971.39	95.62
2974.699	101.62
2978.005	98.62
2981.308	93.62
2984.609	88.62
2987.907	95.62
2991.202	87.62
2994.494	88.62
2997.784	90.62
3001.07	92.62
3004.355	92.62
3007.636	89.62
3010.915	81.62
3014.191	82.62
3017.464	82.62
3020.734	71.62
3024.002	65.62
3027.267	65.62
3030.53	56.62
3033.789	70.62
3037.046	54.62
3040.301	49.62
3043.552	43.62
3046.801	35.62
3050.048	35.62
3053.291	36.62
3056.532	32.62
3059.771	40.62
3063.006	30.62
3066.239	29.62
3069.469	37.62
3072.697	21.62
3075.922	33.62
3079.144	28.62
3082.364	23.62
3085.581	21.62
3088.795	17.62
3092.007	10.62
3095.216	19.62
3098.423	10.62
3101.627	12.62
3104.828	16.62
3108.026	8.62
3111.222	2.62
3114.416	12.62
3117.607	-2.38
3120.795	4.62
3123.98	-0.38
3127.163	5.62
3130.344	1.62
3133.521	-0.38
3136.696	1.62
3139.869	-2.38
3143.039	-6.38
3146.206	-6.38
3149.371	-12.38
3152.533	-15.38
3155.693	-17.38
3158.85	-15.38
3162.005	-23.38
3165.157	-31.38
3168.306	-29.38
3171.453	-32.38
3174.597	-35.38
3177.739	-31.38
3180.878	-47.38
3184.014	-44.38
3187.149	-41.38
3190.28	-47.38
3193.409	-49.38
3196.536	-60.38
3199.659	-50.38
3202.781	-56.38
3205.9	-58.38
3209.016	-68.38
3212.13	-61.38
3215.241	-62.38
3218.35	-62.38
3221.456	-63.38
3224.56	-70.38
3227.661	-79.38
3230.76	-77.38
3233.856	-80.38
3236.95	-75.38
3240.041	-79.38
3243.13	-83.38
3246.216	-79.38
3249.3	-84.38
3252.382	-78.38
3255.46	-86.38
3258.537	-52.38
3261.611	-84.38
3264.682	-81.38
3267.751	-77.38
3270.818	-82.38
3273.882	-82.38
3276.943	-88.38
3280.002	-82.38
3283.059	-89.38
3286.113	-83.38
3289.165	-86.38
3292.214	-88.38
3295.261	-89.38
3298.306	-87.38
3301.348	-94.38
3304.387	-97.38
3307.425	-94.38
3310.459	-100.38
3313.492	-104.38
3316.521	-109.38
3319.549	-101.38
3322.574	-107.38
3325.597	-106.38
3328.617	-102.38
3331.635	-108.38
3334.65	-109.38
3337.663	-113.38
3340.674	-100.38
3343.682	-110.38
3346.688	-108.38
3349.691	-107.38
3352.692	-107.38
3355.691	-109.38
3358.687	-110.38
3361.681	-110.38
3364.673	-116.38
3367.662	-106.38
3370.649	-113.38
3373.633	-113.38
3376.615	-115.38
3379.595	-37.38
3382.572	-95.38
3385.547	-115.38
3388.52	-119.38
3391.49	-114.38
3394.458	-122.38
3397.424	-112.38
3400.387	-117.38
3403.348	-120.38
3406.307	-124.38
3409.263	-124.38
3412.217	-123.38
3415.168	-126.38
3418.118	-121.38
3421.065	-130.38
3424.009	-127.38
3426.951	-130.38
3429.891	-126.38
3432.829	-128.38
3435.764	-136.38
3438.697	-127.38
3441.628	-133.38
3444.557	-131.38
3447.483	-135.38
3450.407	-139.38
3453.328	-131.38
3456.247	-136.38
3459.164	-137.38
3462.079	-134.38
3464.991	-135.38
3467.902	-143.38
3470.809	-141.38
3473.715	-138.38
3476.618	-142.38
3479.519	-137.38
3482.418	-144.38
3485.315	-145.38
3488.209	-146.38
3491.101	-139.38
3493.99	-141.38
3496.878	-144.38
3499.763	-139.38
3502.646	-140.38
3505.527	-142.38
3508.405	-147.38
3511.281	-146.38
3514.155	-143.38
3517.027	-145.38
3519.897	-142.38
3522.764	-142.38
3525.629	-150.38
3528.492	-141.38
3531.352	-147.38
3534.211	-140.38
3537.067	-144.38
3539.921	-145.38
3542.773	-152.38
3545.622	-142.38
3548.469	-151.38
3551.315	-150.38
3554.157	-147.38
3556.998	-148.38
3559.837	-147.38
3562.673	-148.38
3565.507	-150.38
3568.339	-147.38
3571.169	-145.38
3573.996	-152.38
3576.822	-145.38
3579.645	-157.38
3582.466	-148.38
3585.285	-152.38
3588.101	-158.38
3590.916	-150.38
3593.728	-146.38
3596.538	-157.38
3599.346	-153.38
3602.152	-152.38
3604.956	-152.38
3607.757	-158.38
3610.556	-157.38
3613.354	-154.38
3616.149	-155.38
3618.942	-156.38
3621.732	-157.38
3624.521	-155.38
3627.307	-164.38
3630.092	-156.38
3632.874	-162.38
3635.654	-151.38
3638.432	-158.38
3641.208	-162.38
3643.982	-158.38
3646.753	-160.38
3649.523	-162.38
3652.29	-164.38
3655.055	-162.38
3657.818	-165.38
3660.579	-160.38
3663.338	-162.38
3666.095	-165.38
3668.849	-165.38
3671.602	-162.38
3674.352	-161.38
3677.101	-156.38
3679.847	-165.38
3682.591	-162.38
3685.333	-167.38
3688.073	-165.38
3690.811	-160.38
3693.547	-163.38
3696.281	-164.38
3699.013	-159.38
3701.742	-164.38
3704.47	-166.38
3707.195	-160.38
3709.919	-160.38
3712.64	-163.38
3715.359	-162.38
3718.076	-160.38
3720.792	-169.38
3723.505	-164.38
3726.216	-167.38
3728.925	-164.38
3731.632	-166.38
3734.336	-166.38
3737.039	-168.38
3739.74	-163.38
3742.439	-161.38
3745.136	-169.38
3747.83	-164.38
3750.523	-163.38
3753.213	-183.38
3755.902	-168.38
3758.589	-163.38
3761.273	-169.38
3763.956	-167.38
3766.636	-166.38
3769.315	-164.38
3771.991	-164.38
3774.665	-161.38
3777.338	-164.38
3780.008	-168.38
3782.677	-166.38
3785.343	-172.38
3788.007	-168.38
3790.67	-164.38
3793.33	-160.38
3795.989	-161.38
3798.645	-167.38
3801.299	-163.38
3803.952	-168.38
3806.602	-171.38
3809.251	-168.38
3811.897	-167.38
3814.542	-162.38
3817.184	-162.38
3819.825	-164.38
3822.463	-165.38
3825.1	-168.38
3827.735	-165.38
3830.367	-169.38
3832.998	-164.38
3835.627	-161.38
3838.253	-160.38
3840.878	-164.38
3843.501	-166.38
3846.122	-171.38
3848.741	-168.38
3851.358	-166.38
3853.973	-163.38
3856.586	-172.38
3859.197	-162.38
3861.806	-173.38
3864.414	-165.38
3867.019	-160.38
3869.622	-158.38
3872.224	-146.38
3874.823	-127.38
3877.421	-105.38
3880.016	-67.38
3882.61	-36.38
3885.202	-26.38
3887.792	-63.38
3890.38	-103.38
3892.966	-142.38
3895.55	-158.38
3898.132	-167.38
3900.713	-167.38
3903.291	-166.38
3905.868	-172.38
3908.442	-170.38
3911.015	-170.38
3913.586	-172.38
3916.155	-171.38
3918.722	-173.38
3921.287	-170.38
3923.85	-179.38
3926.411	-172.38
3928.971	-175.38
3931.528	-169.38
3934.084	-178.38
3936.638	-175.38
3939.19	-179.38
3941.74	-173.38
3944.288	-174.38
3946.834	-168.38
3949.378	-174.38
3951.921	-169.38
3954.462	-177.38
3957	-164.38
3959.537	-164.38
3962.072	-163.38
3964.606	-170.38
3967.137	-167.38
3969.667	-170.38
3972.194	-168.38
3974.72	-168.38
3977.244	-167.38
3979.766	-172.38
3982.286	-162.38
3984.805	-168.38
3987.321	-167.38
3989.836	-163.38
3992.349	-162.38
3994.86	-165.38
3997.369	-169.38
3999.877	-163.38
4002.382	-159.38
4004.886	-161.38
4007.388	-158.38
4009.888	-164.38
4012.386	-165.38
4014.883	-162.38
4017.377	-160.38
4019.87	-160.38
4022.361	-163.38
4024.85	-168.38
4027.338	-160.38
4029.823	-170.38
4032.307	-164.38
4034.789	-166.38
4037.269	-165.38
4039.747	-166.38
4042.224	-166.38
4044.699	-168.38
4047.172	-169.38
4049.643	-164.38
4052.112	-167.38
4054.58	-171.38
4057.046	-166.38
4059.51	-171.38
4061.972	-168.38
4064.432	-161.38
4066.891	-169.38
4069.348	-162.38
4071.803	-164.38
4074.256	-161.38
4076.708	-163.38
4079.158	-169.38
4081.606	-167.38
4084.052	-169.38
4086.497	-162.38
4088.939	-168.38
4091.38	-162.38
4093.819	-164.38
4096.257	-174.38
4098.693	-177.38
4101.127	-175.38
4103.559	-178.38
4105.989	-11.38
4108.418	-13.38
4110.845	-8.38
4113.27	-13.38
4115.694	-7.38
4118.115	6.62
4120.535	-167.38
4122.954	-161.38
4125.37	-167.38
4127.785	-169.38
4130.198	-167.38
4132.609	-167.38
4135.019	-174.38
4137.427	-175.38
4139.833	-174.38
4142.237	-178.38