File: Data/Raman/2017-08-29 - Alluminum 2/Aug 29 2017 - Aluminum 2/EC 12 4_RamanShift_2.txt
Data from EC 12 4_RamanShift_2.txt Node

Date: Tue Aug 29 12:39:37 IDT 2017
User: aro
Spectrometer: QEPB0276
Trigger mode: 0
Integration Time (sec): 3.000000E1
Scans to average: 1
Electric dark correction enabled: true
Nonlinearity correction enabled: false
Boxcar width: 0
XAxis mode: Raman Shifts
Number of Pixels in Spectrum: 1044
>>>>>Begin Spectral Data<<<<<
160.701	23.38
166.742	42.38
172.777	82.38
178.805	237.38
184.826	598.38
190.841	1223.38
196.849	1946.38
202.85	2495.38
208.845	2741.38
214.833	2789.38
220.815	2812.38
226.789	2894.38
232.758	2967.38
238.719	3027.38
244.674	3086.38
250.623	3109.38
256.565	3167.38
262.5	3203.38
268.429	3240.38
274.351	3269.38
280.267	3325.38
286.176	3396.38
292.079	3435.38
297.975	3479.38
303.865	3512.38
309.748	3534.38
315.625	3573.38
321.495	3588.38
327.359	3608.38
333.217	3600.38
339.068	3629.38
344.912	3675.38
350.751	3709.38
356.583	3675.38
362.408	3694.38
368.227	3769.38
374.04	3863.38
379.847	4005.38
385.647	4046.38
391.44	3963.38
397.228	3874.38
403.009	3911.38
408.784	4116.38
414.553	4535.38
420.315	5035.38
426.071	5077.38
431.821	4511.38
437.565	4074.38
443.302	3932.38
449.033	3856.38
454.758	3803.38
460.477	3770.38
466.189	3722.38
471.896	3676.38
477.596	3623.38
483.29	3617.38
488.978	3595.38
494.66	3602.38
500.335	3481.38
506.005	3323.38
511.668	3124.38
517.325	2962.38
522.977	2811.38
528.622	2735.38
534.261	2656.38
539.894	2593.38
545.521	2564.38
551.141	2540.38
556.756	2542.38
562.365	2482.38
567.968	2485.38
573.565	2487.38
579.155	2482.38
584.74	2481.38
590.319	2464.38
595.892	2452.38
601.459	2443.38
607.02	2422.38
612.575	2421.38
618.124	2384.38
623.667	2358.38
629.204	2370.38
634.735	2387.38
640.261	2491.38
645.781	2648.38
651.294	2680.38
656.802	2597.38
662.304	2389.38
667.8	2284.38
673.29	2250.38
678.775	2225.38
684.254	2217.38
689.726	2206.38
695.193	2182.38
700.655	2171.38
706.11	2154.38
711.56	2139.38
717.004	2127.38
722.442	2128.38
727.874	2132.38
733.301	2152.38
738.722	2149.38
744.137	2197.38
749.547	2221.38
754.951	2239.38
760.349	2229.38
765.741	2206.38
771.128	2183.38
776.509	2194.38
781.885	2231.38
787.254	2270.38
792.618	2260.38
797.977	2265.38
803.33	2244.38
808.677	2220.38
814.019	2193.38
819.355	2181.38
824.686	2143.38
830.011	2144.38
835.33	2149.38
840.644	2126.38
845.952	2108.38
851.255	2075.38
856.552	2069.38
861.844	2042.38
867.13	2015.38
872.41	2027.38
877.686	1999.38
882.955	1972.38
888.219	1952.38
893.478	1936.38
898.731	1921.38
903.979	1897.38
909.221	1902.38
914.458	1898.38
919.69	1901.38
924.916	1895.38
930.136	1897.38
935.351	1884.38
940.561	1886.38
945.766	1890.38
950.965	1875.38
956.158	1877.38
961.347	1864.38
966.529	1835.38
971.707	1817.38
976.879	1784.38
982.046	1773.38
987.208	1759.38
992.364	1760.38
997.515	1782.38
1002.66	1804.38
1007.801	1805.38
1012.936	1815.38
1018.066	1833.38
1023.19	1870.38
1028.309	1855.38
1033.423	1857.38
1038.532	1848.38
1043.636	1829.38
1048.734	1823.38
1053.827	1808.38
1058.915	1786.38
1063.998	1789.38
1069.075	1782.38
1074.147	1781.38
1079.214	1794.38
1084.276	1787.38
1089.333	1795.38
1094.385	1789.38
1099.431	1786.38
1104.472	1771.38
1109.509	1761.38
1114.54	1732.38
1119.565	1713.38
1124.586	1679.38
1129.602	1674.38
1134.613	1648.38
1139.618	1642.38
1144.619	1656.38
1149.614	1648.38
1154.604	1657.38
1159.589	1655.38
1164.57	1658.38
1169.545	1666.38
1174.515	1662.38
1179.48	1655.38
1184.44	1653.38
1189.395	1630.38
1194.345	1605.38
1199.29	1616.38
1204.23	1610.38
1209.165	1643.38
1214.095	1623.38
1219.021	1639.38
1223.941	1646.38
1228.856	1655.38
1233.766	1647.38
1238.672	1641.38
1243.572	1627.38
1248.467	1608.38
1253.358	1607.38
1258.244	1550.38
1263.124	1544.38
1268	1509.38
1272.871	1490.38
1277.737	1469.38
1282.599	1471.38
1287.455	1484.38
1292.306	1474.38
1297.153	1477.38
1301.995	1481.38
1306.832	1501.38
1311.664	1488.38
1316.491	1487.38
1321.314	1455.38
1326.132	1460.38
1330.945	1416.38
1335.753	1387.38
1340.556	1354.38
1345.354	1363.38
1350.148	1335.38
1354.937	1330.38
1359.722	1329.38
1364.501	1323.38
1369.276	1345.38
1374.046	1346.38
1378.811	1363.38
1383.572	1355.38
1388.327	1378.38
1393.079	1357.38
1397.825	1329.38
1402.567	1312.38
1407.304	1284.38
1412.036	1265.38
1416.764	1250.38
1421.487	1256.38
1426.205	1243.38
1430.919	1240.38
1435.628	1262.38
1440.333	1266.38
1445.032	1265.38
1449.727	1275.38
1454.418	1270.38
1459.104	1265.38
1463.785	1223.38
1468.462	1228.38
1473.134	1216.38
1477.802	1191.38
1482.465	1190.38
1487.123	1182.38
1491.777	1185.38
1496.426	1204.38
1501.071	1213.38
1505.711	1226.38
1510.347	1245.38
1514.978	1280.38
1519.604	1272.38
1524.226	1280.38
1528.844	1269.38
1533.457	1256.38
1538.065	1244.38
1542.669	1210.38
1547.269	1201.38
1551.864	1195.38
1556.454	1213.38
1561.041	1201.38
1565.622	1159.38
1570.199	1142.38
1574.772	1129.38
1579.34	1143.38
1583.904	1137.38
1588.464	1124.38
1593.019	1113.38
1597.569	1113.38
1602.115	1095.38
1606.657	1067.38
1611.195	1057.38
1615.728	1045.38
1620.256	1021.38
1624.78	1031.38
1629.3	1016.38
1633.816	1015.38
1638.327	1014.38
1642.834	1019.38
1647.336	1037.38
1651.834	1046.38
1656.328	1029.38
1660.817	1034.38
1665.302	1025.38
1669.783	1025.38
1674.259	1028.38
1678.732	985.38
1683.199	985.38
1687.663	980.38
1692.122	955.38
1696.577	979.38
1701.028	984.38
1705.474	988.38
1709.917	1012.38
1714.355	1006.38
1718.788	999.38
1723.218	996.38
1727.643	987.38
1732.064	974.38
1736.481	945.38
1740.893	923.38
1745.301	902.38
1749.705	885.38
1754.105	863.38
1758.501	839.38
1762.893	828.38
1767.28	818.38
1771.663	789.38
1776.042	791.38
1780.417	785.38
1784.787	793.38
1789.154	807.38
1793.516	826.38
1797.874	828.38
1802.228	834.38
1806.578	857.38
1810.924	865.38
1815.266	842.38
1819.603	825.38
1823.937	797.38
1828.266	786.38
1832.591	763.38
1836.913	782.38
1841.23	759.38
1845.543	749.38
1849.852	750.38
1854.156	750.38
1858.457	761.38
1862.754	751.38
1867.047	751.38
1871.335	761.38
1875.62	754.38
1879.9	754.38
1884.177	751.38
1888.449	737.38
1892.718	725.38
1896.982	742.38
1901.243	724.38
1905.499	723.38
1909.752	731.38
1914	723.38
1918.245	739.38
1922.485	744.38
1926.722	754.38
1930.954	762.38
1935.183	769.38
1939.408	768.38
1943.628	783.38
1947.845	783.38
1952.058	765.38
1956.267	757.38
1960.472	735.38
1964.673	729.38
1968.87	708.38
1973.063	683.38
1977.252	693.38
1981.438	673.38
1985.619	654.38
1989.797	638.38
1993.971	637.38
1998.14	636.38
2002.306	628.38
2006.469	623.38
2010.627	627.38
2014.781	615.38
2018.932	608.38
2023.078	604.38
2027.221	588.38
2031.36	577.38
2035.495	575.38
2039.627	563.38
2043.754	558.38
2047.878	551.38
2051.998	554.38
2056.114	552.38
2060.226	550.38
2064.334	563.38
2068.439	562.38
2072.54	575.38
2076.637	566.38
2080.73	579.38
2084.82	581.38
2088.906	585.38
2092.988	597.38
2097.066	591.38
2101.14	575.38
2105.211	578.38
2109.278	566.38
2113.342	562.38
2117.401	553.38
2121.457	543.38
2125.509	549.38
2129.558	536.38
2133.602	531.38
2137.643	524.38
2141.681	524.38
2145.714	533.38
2149.744	518.38
2153.77	501.38
2157.793	501.38
2161.812	501.38
2165.827	484.38
2169.838	484.38
2173.846	482.38
2177.851	471.38
2181.851	467.38
2185.848	457.38
2189.841	448.38
2193.831	452.38
2197.817	437.38
2201.799	443.38
2205.778	433.38
2209.753	432.38
2213.725	456.38
2217.693	435.38
2221.657	455.38
2225.618	436.38
2229.575	441.38
2233.529	432.38
2237.479	426.38
2241.425	432.38
2245.368	430.38
2249.307	416.38
2253.243	407.38
2257.175	408.38
2261.104	404.38
2265.029	403.38
2268.95	390.38
2272.868	390.38
2276.783	379.38
2280.694	376.38
2284.601	380.38
2288.505	367.38
2292.405	364.38
2296.302	362.38
2300.195	366.38
2304.085	364.38
2307.971	346.38
2311.854	360.38
2315.734	348.38
2319.609	343.38
2323.482	345.38
2327.351	359.38
2331.216	387.38
2335.078	391.38
2338.937	362.38
2342.792	324.38
2346.643	336.38
2350.492	328.38
2354.336	327.38
2358.178	323.38
2362.015	333.38
2365.85	324.38
2369.681	335.38
2373.508	330.38
2377.333	339.38
2381.153	322.38
2384.971	326.38
2388.785	324.38
2392.595	327.38
2396.402	326.38
2400.206	311.38
2404.007	321.38
2407.804	306.38
2411.597	311.38
2415.388	309.38
2419.174	306.38
2422.958	306.38
2426.738	306.38
2430.515	304.38
2434.289	308.38
2438.059	288.38
2441.825	288.38
2445.589	286.38
2449.349	284.38
2453.106	288.38
2456.859	280.38
2460.61	279.38
2464.356	272.38
2468.1	266.38
2471.84	272.38
2475.577	274.38
2479.311	257.38
2483.041	267.38
2486.768	267.38
2490.492	267.38
2494.213	263.38
2497.93	257.38
2501.644	258.38
2505.355	257.38
2509.062	265.38
2512.766	267.38
2516.467	252.38
2520.165	259.38
2523.859	247.38
2527.551	253.38
2531.239	245.38
2534.923	242.38
2538.605	253.38
2542.283	256.38
2545.958	256.38
2549.63	251.38
2553.299	249.38
2556.964	251.38
2560.626	250.38
2564.285	243.38
2567.941	247.38
2571.594	249.38
2575.243	236.38
2578.89	249.38
2582.533	246.38
2586.173	233.38
2589.809	233.38
2593.443	231.38
2597.073	225.38
2600.701	228.38
2604.325	225.38
2607.946	226.38
2611.564	225.38
2615.178	215.38
2618.79	206.38
2622.398	211.38
2626.004	202.38
2629.606	200.38
2633.205	203.38
2636.801	197.38
2640.394	192.38
2643.983	191.38
2647.57	184.38
2651.153	187.38
2654.734	176.38
2658.311	183.38
2661.885	169.38
2665.456	172.38
2669.025	162.38
2672.589	160.38
2676.151	157.38
2679.71	155.38
2683.266	151.38
2686.819	154.38
2690.368	147.38
2693.915	144.38
2697.458	137.38
2700.999	139.38
2704.536	136.38
2708.071	128.38
2711.602	120.38
2715.13	129.38
2718.656	121.38
2722.178	112.38
2725.697	111.38
2729.214	111.38
2732.727	121.38
2736.237	118.38
2739.744	113.38
2743.249	117.38
2746.75	115.38
2750.248	113.38
2753.743	118.38
2757.236	124.38
2760.725	118.38
2764.211	114.38
2767.695	122.38
2771.175	114.38
2774.652	105.38
2778.127	112.38
2781.598	114.38
2785.067	106.38
2788.532	105.38
2791.995	105.38
2795.455	109.38
2798.911	111.38
2802.365	103.38
2805.816	113.38
2809.264	93.38
2812.709	100.38
2816.151	103.38
2819.59	112.38
2823.026	103.38
2826.46	99.38
2829.89	99.38
2833.318	101.38
2836.742	99.38
2840.164	94.38
2843.583	97.38
2846.999	93.38
2850.412	91.38
2853.822	93.38
2857.229	98.38
2860.634	82.38
2864.035	89.38
2867.434	87.38
2870.83	89.38
2874.223	81.38
2877.613	82.38
2881	79.38
2884.385	78.38
2887.766	73.38
2891.145	74.38
2894.521	70.38
2897.894	60.38
2901.264	59.38
2904.631	57.38
2907.996	53.38
2911.358	58.38
2914.717	62.38
2918.073	39.38
2921.426	50.38
2924.777	46.38
2928.124	49.38
2931.469	47.38
2934.811	50.38
2938.15	37.38
2941.487	36.38
2944.821	40.38
2948.152	24.38
2951.48	26.38
2954.805	29.38
2958.128	28.38
2961.447	29.38
2964.765	20.38
2968.079	32.38
2971.39	18.38
2974.699	20.38
2978.005	28.38
2981.308	20.38
2984.609	22.38
2987.907	28.38
2991.202	15.38
2994.494	26.38
2997.784	22.38
3001.07	22.38
3004.355	19.38
3007.636	16.38
3010.915	16.38
3014.191	11.38
3017.464	13.38
3020.734	18.38
3024.002	7.38
3027.267	5.38
3030.53	8.38
3033.789	13.38
3037.046	4.38
3040.301	1.38
3043.552	-3.62
3046.801	-1.62
3050.048	-5.62
3053.291	-0.62
3056.532	-3.62
3059.771	2.38
3063.006	-9.62
3066.239	-1.62
3069.469	-3.62
3072.697	-11.62
3075.922	-12.62
3079.144	-9.62
3082.364	-15.62
3085.581	-10.62
3088.795	-8.62
3092.007	-16.62
3095.216	-12.62
3098.423	-17.62
3101.627	-15.62
3104.828	-15.62
3108.026	-13.62
3111.222	-12.62
3114.416	-5.62
3117.607	-14.62
3120.795	-12.62
3123.98	-23.62
3127.163	-19.62
3130.344	-9.62
3133.521	-24.62
3136.696	-14.62
3139.869	-17.62
3143.039	-22.62
3146.206	-19.62
3149.371	-25.62
3152.533	-25.62
3155.693	-23.62
3158.85	-22.62
3162.005	-25.62
3165.157	-25.62
3168.306	-28.62
3171.453	-29.62
3174.597	-29.62
3177.739	-30.62
3180.878	-35.62
3184.014	-41.62
3187.149	-39.62
3190.28	-39.62
3193.409	-32.62
3196.536	-48.62
3199.659	-41.62
3202.781	-46.62
3205.9	-42.62
3209.016	-57.62
3212.13	-43.62
3215.241	-47.62
3218.35	-44.62
3221.456	-49.62
3224.56	-44.62
3227.661	-50.62
3230.76	-53.62
3233.856	-54.62
3236.95	-52.62
3240.041	-52.62
3243.13	-53.62
3246.216	-48.62
3249.3	-54.62
3252.382	-52.62
3255.46	-52.62
3258.537	-24.62
3261.611	-51.62
3264.682	-54.62
3267.751	-47.62
3270.818	-53.62
3273.882	-55.62
3276.943	-52.62
3280.002	-48.62
3283.059	-60.62
3286.113	-58.62
3289.165	-59.62
3292.214	-57.62
3295.261	-58.62
3298.306	-63.62
3301.348	-60.62
3304.387	-63.62
3307.425	-53.62
3310.459	-63.62
3313.492	-64.62
3316.521	-67.62
3319.549	-65.62
3322.574	-69.62
3325.597	-73.62
3328.617	-65.62
3331.635	-67.62
3334.65	-65.62
3337.663	-73.62
3340.674	-70.62
3343.682	-66.62
3346.688	-70.62
3349.691	-66.62
3352.692	-72.62
3355.691	-66.62
3358.687	-69.62
3361.681	-74.62
3364.673	-69.62
3367.662	-63.62
3370.649	-78.62
3373.633	-68.62
3376.615	-72.62
3379.595	-72.62
3382.572	-66.62
3385.547	-70.62
3388.52	-63.62
3391.49	-75.62
3394.458	-77.62
3397.424	-70.62
3400.387	-73.62
3403.348	-66.62
3406.307	-71.62
3409.263	-76.62
3412.217	-72.62
3415.168	-75.62
3418.118	-75.62
3421.065	-71.62
3424.009	-74.62
3426.951	-70.62
3429.891	-74.62
3432.829	-71.62
3435.764	-80.62
3438.697	-69.62
3441.628	-76.62
3444.557	-77.62
3447.483	-76.62
3450.407	-86.62
3453.328	-76.62
3456.247	-80.62
3459.164	-76.62
3462.079	-79.62
3464.991	-81.62
3467.902	-82.62
3470.809	-84.62
3473.715	-83.62
3476.618	-81.62
3479.519	-77.62
3482.418	-83.62
3485.315	-75.62
3488.209	-82.62
3491.101	-75.62
3493.99	-81.62
3496.878	-80.62
3499.763	-82.62
3502.646	-78.62
3505.527	-83.62
3508.405	-81.62
3511.281	-84.62
3514.155	-80.62
3517.027	-80.62
3519.897	-82.62
3522.764	-80.62
3525.629	-84.62
3528.492	-81.62
3531.352	-81.62
3534.211	-84.62
3537.067	-85.62
3539.921	-81.62
3542.773	-80.62
3545.622	-84.62
3548.469	-86.62
3551.315	-78.62
3554.157	-82.62
3556.998	-87.62
3559.837	-79.62
3562.673	-84.62
3565.507	-79.62
3568.339	-84.62
3571.169	-86.62
3573.996	-89.62
3576.822	-81.62
3579.645	-87.62
3582.466	-79.62
3585.285	-88.62
3588.101	-85.62
3590.916	-93.62
3593.728	-78.62
3596.538	-90.62
3599.346	-86.62
3602.152	-90.62
3604.956	-88.62
3607.757	-87.62
3610.556	-84.62
3613.354	-89.62
3616.149	-91.62
3618.942	-90.62
3621.732	-91.62
3624.521	-87.62
3627.307	-91.62
3630.092	-89.62
3632.874	-90.62
3635.654	-91.62
3638.432	-90.62
3641.208	-93.62
3643.982	-90.62
3646.753	-92.62
3649.523	-94.62
3652.29	-92.62
3655.055	-91.62
3657.818	-93.62
3660.579	-88.62
3663.338	-89.62
3666.095	-92.62
3668.849	-92.62
3671.602	-90.62
3674.352	-92.62
3677.101	-92.62
3679.847	-95.62
3682.591	-88.62
3685.333	-90.62
3688.073	-95.62
3690.811	-92.62
3693.547	-91.62
3696.281	-96.62
3699.013	-91.62
3701.742	-91.62
3704.47	-96.62
3707.195	-89.62
3709.919	-90.62
3712.64	-99.62
3715.359	-98.62
3718.076	-90.62
3720.792	-95.62
3723.505	-95.62
3726.216	-99.62
3728.925	-92.62
3731.632	-96.62
3734.336	-96.62
3737.039	-98.62
3739.74	-93.62
3742.439	-91.62
3745.136	-95.62
3747.83	-98.62
3750.523	-93.62
3753.213	-125.62
3755.902	-97.62
3758.589	-95.62
3761.273	-100.62
3763.956	-97.62
3766.636	-95.62
3769.315	-98.62
3771.991	-95.62
3774.665	-90.62
3777.338	-95.62
3780.008	-103.62
3782.677	-94.62
3785.343	-100.62
3788.007	-98.62
3790.67	-89.62
3793.33	-95.62
3795.989	-90.62
3798.645	-97.62
3801.299	-99.62
3803.952	-95.62
3806.602	-95.62
3809.251	-99.62
3811.897	-95.62
3814.542	-96.62
3817.184	-94.62
3819.825	-98.62
3822.463	-93.62
3825.1	-94.62
3827.735	-94.62
3830.367	-97.62
3832.998	-89.62
3835.627	-86.62
3838.253	-96.62
3840.878	-91.62
3843.501	-93.62
3846.122	-90.62
3848.741	-92.62
3851.358	-92.62
3853.973	-89.62
3856.586	-94.62
3859.197	-91.62
3861.806	-92.62
3864.414	-91.62
3867.019	-87.62
3869.622	-83.62
3872.224	-74.62
3874.823	-61.62
3877.421	-37.62
3880.016	-5.62
3882.61	18.38
3885.202	27.38
3887.792	-0.62
3890.38	-33.62
3892.966	-66.62
3895.55	-80.62
3898.132	-95.62
3900.713	-94.62
3903.291	-96.62
3905.868	-93.62
3908.442	-94.62
3911.015	-96.62
3913.586	-95.62
3916.155	-92.62
3918.722	-97.62
3921.287	-96.62
3923.85	-97.62
3926.411	-97.62
3928.971	-100.62
3931.528	-93.62
3934.084	-99.62
3936.638	-98.62
3939.19	-97.62
3941.74	-99.62
3944.288	-101.62
3946.834	-98.62
3949.378	-100.62
3951.921	-96.62
3954.462	-99.62
3957	-97.62
3959.537	-93.62
3962.072	-90.62
3964.606	-98.62
3967.137	-90.62
3969.667	-96.62
3972.194	-95.62
3974.72	-92.62
3977.244	-97.62
3979.766	-104.62
3982.286	-98.62
3984.805	-97.62
3987.321	-91.62
3989.836	-98.62
3992.349	-96.62
3994.86	-95.62
3997.369	-97.62
3999.877	-93.62
4002.382	-94.62
4004.886	-93.62
4007.388	-92.62
4009.888	-94.62
4012.386	-94.62
4014.883	-94.62
4017.377	-93.62
4019.87	-90.62
4022.361	-97.62
4024.85	-95.62
4027.338	-87.62
4029.823	-96.62
4032.307	-97.62
4034.789	-92.62
4037.269	-97.62
4039.747	-95.62
4042.224	-97.62
4044.699	-90.62
4047.172	-92.62
4049.643	-90.62
4052.112	-89.62
4054.58	-97.62
4057.046	-90.62
4059.51	-94.62
4061.972	-96.62
4064.432	-92.62
4066.891	-97.62
4069.348	-90.62
4071.803	-93.62
4074.256	-88.62
4076.708	-94.62
4079.158	-96.62
4081.606	-93.62
4084.052	-96.62
4086.497	-91.62
4088.939	-97.62
4091.38	-93.62
4093.819	-95.62
4096.257	-94.62
4098.693	-102.62
4101.127	-101.62
4103.559	-102.62
4105.989	26.38
4108.418	22.38
4110.845	22.38
4113.27	6.38
4115.694	10.38
4118.115	16.38
4120.535	-90.62
4122.954	-98.62
4125.37	-93.62
4127.785	-94.62
4130.198	-90.62
4132.609	-95.62
4135.019	-95.62
4137.427	-96.62
4139.833	-94.62
4142.237	-98.62