File: Data/Raman/2017-08-29 - Alluminum 2/Aug 29 2017 - Aluminum 2/EC 110 2_RamanShift_2.txt
Data from EC 110 2_RamanShift_2.txt Node

Date: Tue Aug 29 12:10:37 IDT 2017
User: aro
Spectrometer: QEPB0276
Trigger mode: 0
Integration Time (sec): 3.000000E1
Scans to average: 1
Electric dark correction enabled: true
Nonlinearity correction enabled: false
Boxcar width: 0
XAxis mode: Raman Shifts
Number of Pixels in Spectrum: 1044
>>>>>Begin Spectral Data<<<<<
160.701	32.75
166.742	46.75
172.777	90.75
178.805	246.75
184.826	601.75
190.841	1208.75
196.849	1935.75
202.85	2469.75
208.845	2721.75
214.833	2756.75
220.815	2779.75
226.789	2848.75
232.758	2908.75
238.719	2982.75
244.674	3037.75
250.623	3091.75
256.565	3117.75
262.5	3152.75
268.429	3201.75
274.351	3251.75
280.267	3289.75
286.176	3352.75
292.079	3399.75
297.975	3449.75
303.865	3497.75
309.748	3539.75
315.625	3577.75
321.495	3596.75
327.359	3601.75
333.217	3622.75
339.068	3641.75
344.912	3686.75
350.751	3698.75
356.583	3741.75
362.408	3764.75
368.227	3821.75
374.04	3959.75
379.847	4173.75
385.647	4243.75
391.44	4171.75
397.228	4029.75
403.009	4043.75
408.784	4292.75
414.553	4895.75
420.315	5572.75
426.071	5634.75
431.821	4922.75
437.565	4271.75
443.302	4111.75
449.033	3968.75
454.758	3913.75
460.477	3858.75
466.189	3803.75
471.896	3746.75
477.596	3697.75
483.29	3670.75
488.978	3661.75
494.66	3636.75
500.335	3497.75
506.005	3290.75
511.668	3013.75
517.325	2813.75
522.977	2641.75
528.622	2511.75
534.261	2434.75
539.894	2350.75
545.521	2310.75
551.141	2277.75
556.756	2256.75
562.365	2212.75
567.968	2201.75
573.565	2201.75
579.155	2216.75
584.74	2202.75
590.319	2181.75
595.892	2160.75
601.459	2178.75
607.02	2178.75
612.575	2148.75
618.124	2121.75
623.667	2070.75
629.204	2060.75
634.735	2125.75
640.261	2252.75
645.781	2497.75
651.294	2576.75
656.802	2416.75
662.304	2126.75
667.8	1983.75
673.29	1948.75
678.775	1907.75
684.254	1882.75
689.726	1889.75
695.193	1875.75
700.655	1862.75
706.11	1844.75
711.56	1839.75
717.004	1815.75
722.442	1815.75
727.874	1830.75
733.301	1837.75
738.722	1850.75
744.137	1882.75
749.547	1974.75
754.951	1982.75
760.349	1967.75
765.741	1940.75
771.128	1893.75
776.509	1931.75
781.885	1959.75
787.254	1977.75
792.618	2014.75
797.977	2021.75
803.33	1992.75
808.677	1970.75
814.019	1947.75
819.355	1924.75
824.686	1915.75
830.011	1899.75
835.33	1871.75
840.644	1852.75
845.952	1842.75
851.255	1800.75
856.552	1772.75
861.844	1751.75
867.13	1740.75
872.41	1715.75
877.686	1685.75
882.955	1667.75
888.219	1641.75
893.478	1634.75
898.731	1613.75
903.979	1630.75
909.221	1601.75
914.458	1579.75
919.69	1574.75
924.916	1575.75
930.136	1592.75
935.351	1594.75
940.561	1587.75
945.766	1592.75
950.965	1592.75
956.158	1590.75
961.347	1579.75
966.529	1542.75
971.707	1520.75
976.879	1517.75
982.046	1492.75
987.208	1495.75
992.364	1494.75
997.515	1489.75
1002.66	1505.75
1007.801	1540.75
1012.936	1544.75
1018.066	1543.75
1023.19	1568.75
1028.309	1568.75
1033.423	1579.75
1038.532	1574.75
1043.636	1582.75
1048.734	1556.75
1053.827	1558.75
1058.915	1533.75
1063.998	1545.75
1069.075	1540.75
1074.147	1545.75
1079.214	1535.75
1084.276	1522.75
1089.333	1541.75
1094.385	1559.75
1099.431	1552.75
1104.472	1517.75
1109.509	1489.75
1114.54	1473.75
1119.565	1439.75
1124.586	1421.75
1129.602	1418.75
1134.613	1407.75
1139.618	1397.75
1144.619	1387.75
1149.614	1402.75
1154.604	1403.75
1159.589	1414.75
1164.57	1429.75
1169.545	1408.75
1174.515	1422.75
1179.48	1422.75
1184.44	1418.75
1189.395	1404.75
1194.345	1398.75
1199.29	1394.75
1204.23	1394.75
1209.165	1402.75
1214.095	1398.75
1219.021	1404.75
1223.941	1401.75
1228.856	1430.75
1233.766	1417.75
1238.672	1424.75
1243.572	1413.75
1248.467	1386.75
1253.358	1374.75
1258.244	1330.75
1263.124	1332.75
1268	1279.75
1272.871	1260.75
1277.737	1243.75
1282.599	1243.75
1287.455	1244.75
1292.306	1242.75
1297.153	1262.75
1301.995	1259.75
1306.832	1265.75
1311.664	1260.75
1316.491	1272.75
1321.314	1256.75
1326.132	1256.75
1330.945	1226.75
1335.753	1190.75
1340.556	1180.75
1345.354	1173.75
1350.148	1131.75
1354.937	1153.75
1359.722	1142.75
1364.501	1155.75
1369.276	1126.75
1374.046	1135.75
1378.811	1133.75
1383.572	1153.75
1388.327	1135.75
1393.079	1135.75
1397.825	1126.75
1402.567	1102.75
1407.304	1085.75
1412.036	1074.75
1416.764	1057.75
1421.487	1064.75
1426.205	1057.75
1430.919	1062.75
1435.628	1074.75
1440.333	1083.75
1445.032	1070.75
1449.727	1093.75
1454.418	1082.75
1459.104	1081.75
1463.785	1063.75
1468.462	1032.75
1473.134	1042.75
1477.802	1022.75
1482.465	1023.75
1487.123	1015.75
1491.777	1016.75
1496.426	1025.75
1501.071	1023.75
1505.711	1040.75
1510.347	1046.75
1514.978	1059.75
1519.604	1064.75
1524.226	1065.75
1528.844	1052.75
1533.457	1044.75
1538.065	1023.75
1542.669	1011.75
1547.269	1004.75
1551.864	997.75
1556.454	999.75
1561.041	1003.75
1565.622	986.75
1570.199	977.75
1574.772	967.75
1579.34	959.75
1583.904	972.75
1588.464	956.75
1593.019	958.75
1597.569	948.75
1602.115	918.75
1606.657	912.75
1611.195	899.75
1615.728	887.75
1620.256	881.75
1624.78	874.75
1629.3	862.75
1633.816	870.75
1638.327	881.75
1642.834	883.75
1647.336	872.75
1651.834	890.75
1656.328	879.75
1660.817	886.75
1665.302	873.75
1669.783	870.75
1674.259	868.75
1678.732	868.75
1683.199	850.75
1687.663	834.75
1692.122	822.75
1696.577	837.75
1701.028	816.75
1705.474	820.75
1709.917	829.75
1714.355	825.75
1718.788	828.75
1723.218	817.75
1727.643	824.75
1732.064	795.75
1736.481	783.75
1740.893	759.75
1745.301	752.75
1749.705	747.75
1754.105	723.75
1758.501	714.75
1762.893	705.75
1767.28	689.75
1771.663	679.75
1776.042	678.75
1780.417	668.75
1784.787	653.75
1789.154	681.75
1793.516	678.75
1797.874	691.75
1802.228	690.75
1806.578	707.75
1810.924	687.75
1815.266	684.75
1819.603	652.75
1823.937	664.75
1828.266	646.75
1832.591	635.75
1836.913	643.75
1841.23	625.75
1845.543	632.75
1849.852	633.75
1854.156	627.75
1858.457	620.75
1862.754	627.75
1867.047	629.75
1871.335	626.75
1875.62	632.75
1879.9	626.75
1884.177	632.75
1888.449	630.75
1892.718	610.75
1896.982	609.75
1901.243	605.75
1905.499	587.75
1909.752	610.75
1914	606.75
1918.245	613.75
1922.485	610.75
1926.722	607.75
1930.954	611.75
1935.183	618.75
1939.408	625.75
1943.628	634.75
1947.845	624.75
1952.058	604.75
1956.267	620.75
1960.472	592.75
1964.673	578.75
1968.87	554.75
1973.063	548.75
1977.252	543.75
1981.438	541.75
1985.619	528.75
1989.797	522.75
1993.971	518.75
1998.14	506.75
2002.306	508.75
2006.469	520.75
2010.627	506.75
2014.781	497.75
2018.932	504.75
2023.078	490.75
2027.221	489.75
2031.36	476.75
2035.495	480.75
2039.627	469.75
2043.754	469.75
2047.878	463.75
2051.998	452.75
2056.114	467.75
2060.226	457.75
2064.334	468.75
2068.439	469.75
2072.54	459.75
2076.637	463.75
2080.73	474.75
2084.82	466.75
2088.906	467.75
2092.988	471.75
2097.066	470.75
2101.14	460.75
2105.211	465.75
2109.278	461.75
2113.342	443.75
2117.401	452.75
2121.457	439.75
2125.509	415.75
2129.558	438.75
2133.602	421.75
2137.643	431.75
2141.681	425.75
2145.714	415.75
2149.744	408.75
2153.77	404.75
2157.793	402.75
2161.812	400.75
2165.827	396.75
2169.838	395.75
2173.846	390.75
2177.851	386.75
2181.851	375.75
2185.848	365.75
2189.841	364.75
2193.831	359.75
2197.817	361.75
2201.799	367.75
2205.778	370.75
2209.753	360.75
2213.725	359.75
2217.693	354.75
2221.657	374.75
2225.618	354.75
2229.575	356.75
2233.529	359.75
2237.479	349.75
2241.425	351.75
2245.368	335.75
2249.307	336.75
2253.243	333.75
2257.175	326.75
2261.104	326.75
2265.029	320.75
2268.95	312.75
2272.868	318.75
2276.783	309.75
2280.694	308.75
2284.601	301.75
2288.505	304.75
2292.405	301.75
2296.302	288.75
2300.195	291.75
2304.085	286.75
2307.971	282.75
2311.854	287.75
2315.734	282.75
2319.609	285.75
2323.482	275.75
2327.351	290.75
2331.216	298.75
2335.078	310.75
2338.937	304.75
2342.792	258.75
2346.643	270.75
2350.492	264.75
2354.336	275.75
2358.178	263.75
2362.015	272.75
2365.85	266.75
2369.681	261.75
2373.508	268.75
2377.333	278.75
2381.153	265.75
2384.971	262.75
2388.785	264.75
2392.595	260.75
2396.402	258.75
2400.206	258.75
2404.007	260.75
2407.804	256.75
2411.597	264.75
2415.388	252.75
2419.174	257.75
2422.958	249.75
2426.738	244.75
2430.515	243.75
2434.289	249.75
2438.059	240.75
2441.825	239.75
2445.589	231.75
2449.349	228.75
2453.106	222.75
2456.859	221.75
2460.61	229.75
2464.356	216.75
2468.1	217.75
2471.84	213.75
2475.577	219.75
2479.311	213.75
2483.041	217.75
2486.768	209.75
2490.492	207.75
2494.213	213.75
2497.93	209.75
2501.644	200.75
2505.355	195.75
2509.062	200.75
2512.766	198.75
2516.467	200.75
2520.165	196.75
2523.859	198.75
2527.551	200.75
2531.239	193.75
2534.923	189.75
2538.605	194.75
2542.283	187.75
2545.958	191.75
2549.63	187.75
2553.299	188.75
2556.964	188.75
2560.626	180.75
2564.285	187.75
2567.941	183.75
2571.594	189.75
2575.243	179.75
2578.89	182.75
2582.533	179.75
2586.173	174.75
2589.809	183.75
2593.443	176.75
2597.073	163.75
2600.701	167.75
2604.325	171.75
2607.946	169.75
2611.564	159.75
2615.178	163.75
2618.79	157.75
2622.398	151.75
2626.004	151.75
2629.606	153.75
2633.205	146.75
2636.801	154.75
2640.394	152.75
2643.983	142.75
2647.57	137.75
2651.153	132.75
2654.734	134.75
2658.311	133.75
2661.885	128.75
2665.456	137.75
2669.025	122.75
2672.589	118.75
2676.151	120.75
2679.71	119.75
2683.266	116.75
2686.819	106.75
2690.368	111.75
2693.915	104.75
2697.458	103.75
2700.999	99.75
2704.536	96.75
2708.071	86.75
2711.602	85.75
2715.13	94.75
2718.656	91.75
2722.178	79.75
2725.697	81.75
2729.214	86.75
2732.727	85.75
2736.237	83.75
2739.744	80.75
2743.249	80.75
2746.75	82.75
2750.248	83.75
2753.743	70.75
2757.236	82.75
2760.725	72.75
2764.211	83.75
2767.695	86.75
2771.175	82.75
2774.652	82.75
2778.127	80.75
2781.598	65.75
2785.067	70.75
2788.532	81.75
2791.995	73.75
2795.455	72.75
2798.911	71.75
2802.365	72.75
2805.816	79.75
2809.264	67.75
2812.709	72.75
2816.151	71.75
2819.59	70.75
2823.026	68.75
2826.46	71.75
2829.89	63.75
2833.318	66.75
2836.742	65.75
2840.164	59.75
2843.583	61.75
2846.999	63.75
2850.412	64.75
2853.822	54.75
2857.229	66.75
2860.634	62.75
2864.035	61.75
2867.434	53.75
2870.83	57.75
2874.223	49.75
2877.613	49.75
2881	44.75
2884.385	41.75
2887.766	42.75
2891.145	37.75
2894.521	40.75
2897.894	38.75
2901.264	33.75
2904.631	35.75
2907.996	21.75
2911.358	27.75
2914.717	26.75
2918.073	16.75
2921.426	27.75
2924.777	22.75
2928.124	19.75
2931.469	19.75
2934.811	19.75
2938.15	9.75
2941.487	11.75
2944.821	10.75
2948.152	2.75
2951.48	1.75
2954.805	5.75
2958.128	13.75
2961.447	8.75
2964.765	-3.25
2968.079	6.75
2971.39	6.75
2974.699	3.75
2978.005	-0.25
2981.308	0.75
2984.609	-3.25
2987.907	5.75
2991.202	-3.25
2994.494	4.75
2997.784	2.75
3001.07	-1.25
3004.355	-1.25
3007.636	-2.25
3010.915	-6.25
3014.191	-6.25
3017.464	-7.25
3020.734	-11.25
3024.002	-13.25
3027.267	-11.25
3030.53	-16.25
3033.789	-8.25
3037.046	-13.25
3040.301	-15.25
3043.552	-24.25
3046.801	-19.25
3050.048	-25.25
3053.291	-20.25
3056.532	-27.25
3059.771	-16.25
3063.006	-29.25
3066.239	-23.25
3069.469	-25.25
3072.697	-29.25
3075.922	-30.25
3079.144	-23.25
3082.364	-28.25
3085.581	-29.25
3088.795	-31.25
3092.007	-37.25
3095.216	-33.25
3098.423	-32.25
3101.627	-25.25
3104.828	-31.25
3108.026	-37.25
3111.222	-31.25
3114.416	-36.25
3117.607	-30.25
3120.795	-22.25
3123.98	-34.25
3127.163	-33.25
3130.344	-40.25
3133.521	-40.25
3136.696	-37.25
3139.869	-35.25
3143.039	-34.25
3146.206	-39.25
3149.371	-40.25
3152.533	-34.25
3155.693	-45.25
3158.85	-37.25
3162.005	-44.25
3165.157	-42.25
3168.306	-36.25
3171.453	-49.25
3174.597	-45.25
3177.739	-46.25
3180.878	-53.25
3184.014	-57.25
3187.149	-54.25
3190.28	-53.25
3193.409	-52.25
3196.536	-60.25
3199.659	-52.25
3202.781	-58.25
3205.9	-61.25
3209.016	-63.25
3212.13	-57.25
3215.241	-54.25
3218.35	-51.25
3221.456	-56.25
3224.56	-56.25
3227.661	-60.25
3230.76	-61.25
3233.856	-66.25
3236.95	-63.25
3240.041	-62.25
3243.13	-65.25
3246.216	-57.25
3249.3	-66.25
3252.382	-65.25
3255.46	-59.25
3258.537	-33.25
3261.611	-61.25
3264.682	-67.25
3267.751	-58.25
3270.818	-69.25
3273.882	-66.25
3276.943	-69.25
3280.002	-65.25
3283.059	-68.25
3286.113	-64.25
3289.165	-68.25
3292.214	-71.25
3295.261	-67.25
3298.306	-71.25
3301.348	-74.25
3304.387	-74.25
3307.425	-73.25
3310.459	-77.25
3313.492	-77.25
3316.521	-76.25
3319.549	-71.25
3322.574	-78.25
3325.597	-79.25
3328.617	-79.25
3331.635	-78.25
3334.65	-74.25
3337.663	-84.25
3340.674	-78.25
3343.682	-78.25
3346.688	-79.25
3349.691	-77.25
3352.692	-79.25
3355.691	-80.25
3358.687	-80.25
3361.681	-81.25
3364.673	-78.25
3367.662	-74.25
3370.649	-80.25
3373.633	-76.25
3376.615	-80.25
3379.595	-81.25
3382.572	-77.25
3385.547	-84.25
3388.52	-73.25
3391.49	-82.25
3394.458	-83.25
3397.424	-77.25
3400.387	-74.25
3403.348	-76.25
3406.307	-73.25
3409.263	-78.25
3412.217	-81.25
3415.168	-80.25
3418.118	-83.25
3421.065	-82.25
3424.009	-77.25
3426.951	-82.25
3429.891	-79.25
3432.829	-80.25
3435.764	-87.25
3438.697	-78.25
3441.628	-82.25
3444.557	-79.25
3447.483	-90.25
3450.407	-86.25
3453.328	-82.25
3456.247	-86.25
3459.164	-81.25
3462.079	-87.25
3464.991	-87.25
3467.902	-88.25
3470.809	-91.25
3473.715	-89.25
3476.618	-91.25
3479.519	-79.25
3482.418	-89.25
3485.315	-92.25
3488.209	-94.25
3491.101	-85.25
3493.99	-92.25
3496.878	-91.25
3499.763	-94.25
3502.646	-88.25
3505.527	-96.25
3508.405	-94.25
3511.281	-95.25
3514.155	-86.25
3517.027	-90.25
3519.897	-94.25
3522.764	-84.25
3525.629	-94.25
3528.492	-89.25
3531.352	-92.25
3534.211	-93.25
3537.067	-93.25
3539.921	-91.25
3542.773	-93.25
3545.622	-94.25
3548.469	-92.25
3551.315	-89.25
3554.157	-89.25
3556.998	-95.25
3559.837	-89.25
3562.673	-91.25
3565.507	-93.25
3568.339	-93.25
3571.169	-89.25
3573.996	-92.25
3576.822	-85.25
3579.645	-96.25
3582.466	-92.25
3585.285	-94.25
3588.101	-98.25
3590.916	-95.25
3593.728	-93.25
3596.538	-95.25
3599.346	-95.25
3602.152	-96.25
3604.956	-89.25
3607.757	-99.25
3610.556	-95.25
3613.354	-95.25
3616.149	-101.25
3618.942	-97.25
3621.732	-97.25
3624.521	-95.25
3627.307	-97.25
3630.092	-98.25
3632.874	-96.25
3635.654	-93.25
3638.432	-98.25
3641.208	-100.25
3643.982	-97.25
3646.753	-96.25
3649.523	-97.25
3652.29	-100.25
3655.055	-97.25
3657.818	-99.25
3660.579	-98.25
3663.338	-99.25
3666.095	-103.25
3668.849	-97.25
3671.602	-97.25
3674.352	-103.25
3677.101	-97.25
3679.847	-104.25
3682.591	-97.25
3685.333	-100.25
3688.073	-104.25
3690.811	-99.25
3693.547	-97.25
3696.281	-101.25
3699.013	-99.25
3701.742	-103.25
3704.47	-106.25
3707.195	-98.25
3709.919	-100.25
3712.64	-102.25
3715.359	-102.25
3718.076	-97.25
3720.792	-100.25
3723.505	-105.25
3726.216	-103.25
3728.925	-101.25
3731.632	-103.25
3734.336	-104.25
3737.039	-105.25
3739.74	-94.25
3742.439	-96.25
3745.136	-104.25
3747.83	-99.25
3750.523	-100.25
3753.213	-118.25
3755.902	-106.25
3758.589	-103.25
3761.273	-107.25
3763.956	-100.25
3766.636	-104.25
3769.315	-101.25
3771.991	-105.25
3774.665	-97.25
3777.338	-97.25
3780.008	-112.25
3782.677	-101.25
3785.343	-104.25
3788.007	-105.25
3790.67	-97.25
3793.33	-100.25
3795.989	-96.25
3798.645	-102.25
3801.299	-103.25
3803.952	-101.25
3806.602	-104.25
3809.251	-102.25
3811.897	-97.25
3814.542	-107.25
3817.184	-101.25
3819.825	-102.25
3822.463	-104.25
3825.1	-103.25
3827.735	-101.25
3830.367	-104.25
3832.998	-98.25
3835.627	-94.25
3838.253	-100.25
3840.878	-99.25
3843.501	-102.25
3846.122	-99.25
3848.741	-103.25
3851.358	-103.25
3853.973	-93.25
3856.586	-105.25
3859.197	-98.25
3861.806	-103.25
3864.414	-96.25
3867.019	-94.25
3869.622	-90.25
3872.224	-76.25
3874.823	-57.25
3877.421	-30.25
3880.016	14.75
3882.61	44.75
3885.202	77.75
3887.792	37.75
3890.38	-13.25
3892.966	-61.25
3895.55	-84.25
3898.132	-96.25
3900.713	-98.25
3903.291	-100.25
3905.868	-99.25
3908.442	-106.25
3911.015	-104.25
3913.586	-106.25
3916.155	-103.25
3918.722	-103.25
3921.287	-100.25
3923.85	-109.25
3926.411	-107.25
3928.971	-108.25
3931.528	-99.25
3934.084	-104.25
3936.638	-106.25
3939.19	-106.25
3941.74	-105.25
3944.288	-102.25
3946.834	-103.25
3949.378	-102.25
3951.921	-99.25
3954.462	-106.25
3957	-98.25
3959.537	-98.25
3962.072	-92.25
3964.606	-101.25
3967.137	-93.25
3969.667	-100.25
3972.194	-104.25
3974.72	-100.25
3977.244	-103.25
3979.766	-111.25
3982.286	-102.25
3984.805	-100.25
3987.321	-99.25
3989.836	-102.25
3992.349	-95.25
3994.86	-105.25
3997.369	-98.25
3999.877	-103.25
4002.382	-100.25
4004.886	-103.25
4007.388	-96.25
4009.888	-104.25
4012.386	-104.25
4014.883	-103.25
4017.377	-96.25
4019.87	-101.25
4022.361	-103.25
4024.85	-106.25
4027.338	-99.25
4029.823	-105.25
4032.307	-104.25
4034.789	-103.25
4037.269	-103.25
4039.747	-102.25
4042.224	-98.25
4044.699	-96.25
4047.172	-98.25
4049.643	-97.25
4052.112	-98.25
4054.58	-101.25
4057.046	-100.25
4059.51	-102.25
4061.972	-97.25
4064.432	-100.25
4066.891	-103.25
4069.348	-98.25
4071.803	-100.25
4074.256	-94.25
4076.708	-98.25
4079.158	-99.25
4081.606	-102.25
4084.052	-102.25
4086.497	-101.25
4088.939	-107.25
4091.38	-101.25
4093.819	-102.25
4096.257	-103.25
4098.693	-109.25
4101.127	-105.25
4103.559	-108.25
4105.989	40.75
4108.418	38.75
4110.845	31.75
4113.27	28.75
4115.694	23.75
4118.115	30.75
4120.535	-100.25
4122.954	-98.25
4125.37	-101.25
4127.785	-105.25
4130.198	-104.25
4132.609	-100.25
4135.019	-101.25
4137.427	-105.25
4139.833	-104.25
4142.237	-106.25