File: Data/Raman/2017-08-29 - Alluminum 2/Aug 29 2017 - Aluminum 2/EC 12 4_RamanShift_1.txt
Data from EC 12 4_RamanShift_1.txt Node

Date: Tue Aug 29 12:39:07 IDT 2017
User: aro
Spectrometer: QEPB0276
Trigger mode: 0
Integration Time (sec): 3.000000E1
Scans to average: 1
Electric dark correction enabled: true
Nonlinearity correction enabled: false
Boxcar width: 0
XAxis mode: Raman Shifts
Number of Pixels in Spectrum: 1044
>>>>>Begin Spectral Data<<<<<
160.701	21.62
166.742	41.62
172.777	98.62
178.805	275.62
184.826	701.62
190.841	1449.62
196.849	2293.62
202.85	2945.62
208.845	3203.62
214.833	3257.62
220.815	3302.62
226.789	3378.62
232.758	3477.62
238.719	3577.62
244.674	3637.62
250.623	3713.62
256.565	3734.62
262.5	3785.62
268.429	3837.62
274.351	3869.62
280.267	3956.62
286.176	3950.62
292.079	4033.62
297.975	4071.62
303.865	4119.62
309.748	4157.62
315.625	4194.62
321.495	4182.62
327.359	4194.62
333.217	4233.62
339.068	4291.62
344.912	4274.62
350.751	4282.62
356.583	4298.62
362.408	4280.62
368.227	4352.62
374.04	4469.62
379.847	4608.62
385.647	4679.62
391.44	4602.62
397.228	4512.62
403.009	4516.62
408.784	4726.62
414.553	5109.62
420.315	5640.62
426.071	5650.62
431.821	5137.62
437.565	4666.62
443.302	4545.62
449.033	4441.62
454.758	4409.62
460.477	4370.62
466.189	4308.62
471.896	4257.62
477.596	4249.62
483.29	4194.62
488.978	4209.62
494.66	4156.62
500.335	4085.62
506.005	3889.62
511.668	3702.62
517.325	3544.62
522.977	3406.62
528.622	3317.62
534.261	3220.62
539.894	3188.62
545.521	3132.62
551.141	3127.62
556.756	3097.62
562.365	3043.62
567.968	3055.62
573.565	3060.62
579.155	3050.62
584.74	3042.62
590.319	3051.62
595.892	2995.62
601.459	2995.62
607.02	2974.62
612.575	2951.62
618.124	2933.62
623.667	2903.62
629.204	2893.62
634.735	2928.62
640.261	3017.62
645.781	3151.62
651.294	3220.62
656.802	3101.62
662.304	2887.62
667.8	2776.62
673.29	2725.62
678.775	2756.62
684.254	2715.62
689.726	2709.62
695.193	2688.62
700.655	2660.62
706.11	2644.62
711.56	2642.62
717.004	2617.62
722.442	2646.62
727.874	2608.62
733.301	2602.62
738.722	2629.62
744.137	2667.62
749.547	2689.62
754.951	2723.62
760.349	2707.62
765.741	2664.62
771.128	2660.62
776.509	2678.62
781.885	2719.62
787.254	2716.62
792.618	2727.62
797.977	2699.62
803.33	2704.62
808.677	2672.62
814.019	2659.62
819.355	2629.62
824.686	2624.62
830.011	2591.62
835.33	2566.62
840.644	2578.62
845.952	2542.62
851.255	2514.62
856.552	2490.62
861.844	2480.62
867.13	2468.62
872.41	2453.62
877.686	2422.62
882.955	2417.62
888.219	2378.62
893.478	2358.62
898.731	2335.62
903.979	2329.62
909.221	2293.62
914.458	2291.62
919.69	2301.62
924.916	2303.62
930.136	2306.62
935.351	2313.62
940.561	2301.62
945.766	2295.62
950.965	2289.62
956.158	2271.62
961.347	2250.62
966.529	2220.62
971.707	2193.62
976.879	2185.62
982.046	2170.62
987.208	2139.62
992.364	2164.62
997.515	2171.62
1002.66	2178.62
1007.801	2195.62
1012.936	2213.62
1018.066	2226.62
1023.19	2230.62
1028.309	2237.62
1033.423	2241.62
1038.532	2245.62
1043.636	2223.62
1048.734	2207.62
1053.827	2163.62
1058.915	2135.62
1063.998	2151.62
1069.075	2148.62
1074.147	2138.62
1079.214	2139.62
1084.276	2144.62
1089.333	2139.62
1094.385	2140.62
1099.431	2165.62
1104.472	2132.62
1109.509	2119.62
1114.54	2087.62
1119.565	2058.62
1124.586	2045.62
1129.602	1991.62
1134.613	1991.62
1139.618	1961.62
1144.619	1966.62
1149.614	1984.62
1154.604	1991.62
1159.589	1985.62
1164.57	1997.62
1169.545	2002.62
1174.515	2005.62
1179.48	1998.62
1184.44	1961.62
1189.395	1948.62
1194.345	1948.62
1199.29	1934.62
1204.23	1916.62
1209.165	1929.62
1214.095	1952.62
1219.021	1963.62
1223.941	1961.62
1228.856	1966.62
1233.766	1964.62
1238.672	1942.62
1243.572	1964.62
1248.467	1929.62
1253.358	1895.62
1258.244	1854.62
1263.124	1848.62
1268	1787.62
1272.871	1784.62
1277.737	1739.62
1282.599	1760.62
1287.455	1754.62
1292.306	1753.62
1297.153	1751.62
1301.995	1762.62
1306.832	1760.62
1311.664	1768.62
1316.491	1734.62
1321.314	1726.62
1326.132	1737.62
1330.945	1683.62
1335.753	1649.62
1340.556	1609.62
1345.354	1589.62
1350.148	1574.62
1354.937	1556.62
1359.722	1570.62
1364.501	1588.62
1369.276	1582.62
1374.046	1587.62
1378.811	1607.62
1383.572	1622.62
1388.327	1628.62
1393.079	1614.62
1397.825	1584.62
1402.567	1548.62
1407.304	1522.62
1412.036	1494.62
1416.764	1476.62
1421.487	1481.62
1426.205	1451.62
1430.919	1461.62
1435.628	1486.62
1440.333	1501.62
1445.032	1485.62
1449.727	1491.62
1454.418	1492.62
1459.104	1467.62
1463.785	1458.62
1468.462	1419.62
1473.134	1412.62
1477.802	1388.62
1482.465	1388.62
1487.123	1391.62
1491.777	1390.62
1496.426	1376.62
1501.071	1411.62
1505.711	1437.62
1510.347	1448.62
1514.978	1479.62
1519.604	1473.62
1524.226	1487.62
1528.844	1490.62
1533.457	1465.62
1538.065	1448.62
1542.669	1428.62
1547.269	1410.62
1551.864	1408.62
1556.454	1397.62
1561.041	1391.62
1565.622	1377.62
1570.199	1352.62
1574.772	1335.62
1579.34	1329.62
1583.904	1352.62
1588.464	1324.62
1593.019	1305.62
1597.569	1311.62
1602.115	1265.62
1606.657	1238.62
1611.195	1228.62
1615.728	1200.62
1620.256	1203.62
1624.78	1191.62
1629.3	1185.62
1633.816	1170.62
1638.327	1172.62
1642.834	1193.62
1647.336	1194.62
1651.834	1194.62
1656.328	1208.62
1660.817	1213.62
1665.302	1213.62
1669.783	1188.62
1674.259	1174.62
1678.732	1172.62
1683.199	1137.62
1687.663	1140.62
1692.122	1105.62
1696.577	1110.62
1701.028	1125.62
1705.474	1145.62
1709.917	1165.62
1714.355	1164.62
1718.788	1161.62
1723.218	1162.62
1727.643	1132.62
1732.064	1119.62
1736.481	1106.62
1740.893	1088.62
1745.301	1049.62
1749.705	1027.62
1754.105	1000.62
1758.501	980.62
1762.893	956.62
1767.28	939.62
1771.663	926.62
1776.042	911.62
1780.417	919.62
1784.787	926.62
1789.154	929.62
1793.516	935.62
1797.874	952.62
1802.228	961.62
1806.578	973.62
1810.924	982.62
1815.266	969.62
1819.603	951.62
1823.937	920.62
1828.266	912.62
1832.591	907.62
1836.913	891.62
1841.23	866.62
1845.543	862.62
1849.852	870.62
1854.156	864.62
1858.457	868.62
1862.754	855.62
1867.047	861.62
1871.335	865.62
1875.62	858.62
1879.9	857.62
1884.177	855.62
1888.449	849.62
1892.718	847.62
1896.982	843.62
1901.243	834.62
1905.499	831.62
1909.752	838.62
1914	838.62
1918.245	831.62
1922.485	864.62
1926.722	852.62
1930.954	870.62
1935.183	884.62
1939.408	889.62
1943.628	906.62
1947.845	893.62
1952.058	867.62
1956.267	872.62
1960.472	845.62
1964.673	827.62
1968.87	807.62
1973.063	793.62
1977.252	773.62
1981.438	773.62
1985.619	754.62
1989.797	740.62
1993.971	723.62
1998.14	720.62
2002.306	713.62
2006.469	719.62
2010.627	711.62
2014.781	704.62
2018.932	698.62
2023.078	684.62
2027.221	680.62
2031.36	663.62
2035.495	646.62
2039.627	638.62
2043.754	637.62
2047.878	634.62
2051.998	628.62
2056.114	620.62
2060.226	622.62
2064.334	641.62
2068.439	623.62
2072.54	642.62
2076.637	655.62
2080.73	647.62
2084.82	643.62
2088.906	664.62
2092.988	664.62
2097.066	666.62
2101.14	647.62
2105.211	647.62
2109.278	632.62
2113.342	630.62
2117.401	621.62
2121.457	618.62
2125.509	617.62
2129.558	605.62
2133.602	592.62
2137.643	591.62
2141.681	603.62
2145.714	590.62
2149.744	578.62
2153.77	584.62
2157.793	566.62
2161.812	570.62
2165.827	566.62
2169.838	528.62
2173.846	542.62
2177.851	531.62
2181.851	515.62
2185.848	516.62
2189.841	519.62
2193.831	504.62
2197.817	500.62
2201.799	505.62
2205.778	507.62
2209.753	492.62
2213.725	489.62
2217.693	494.62
2221.657	490.62
2225.618	497.62
2229.575	491.62
2233.529	497.62
2237.479	490.62
2241.425	488.62
2245.368	463.62
2249.307	465.62
2253.243	460.62
2257.175	449.62
2261.104	463.62
2265.029	456.62
2268.95	446.62
2272.868	435.62
2276.783	428.62
2280.694	424.62
2284.601	417.62
2288.505	420.62
2292.405	420.62
2296.302	417.62
2300.195	408.62
2304.085	409.62
2307.971	397.62
2311.854	392.62
2315.734	404.62
2319.609	388.62
2323.482	385.62
2327.351	402.62
2331.216	426.62
2335.078	422.62
2338.937	401.62
2342.792	369.62
2346.643	367.62
2350.492	366.62
2354.336	370.62
2358.178	361.62
2362.015	367.62
2365.85	363.62
2369.681	377.62
2373.508	371.62
2377.333	374.62
2381.153	365.62
2384.971	367.62
2388.785	355.62
2392.595	366.62
2396.402	362.62
2400.206	345.62
2404.007	352.62
2407.804	356.62
2411.597	354.62
2415.388	347.62
2419.174	341.62
2422.958	340.62
2426.738	342.62
2430.515	333.62
2434.289	335.62
2438.059	329.62
2441.825	327.62
2445.589	320.62
2449.349	309.62
2453.106	320.62
2456.859	306.62
2460.61	310.62
2464.356	294.62
2468.1	298.62
2471.84	291.62
2475.577	302.62
2479.311	301.62
2483.041	298.62
2486.768	286.62
2490.492	292.62
2494.213	291.62
2497.93	287.62
2501.644	277.62
2505.355	277.62
2509.062	288.62
2512.766	283.62
2516.467	277.62
2520.165	280.62
2523.859	286.62
2527.551	276.62
2531.239	267.62
2534.923	281.62
2538.605	271.62
2542.283	270.62
2545.958	271.62
2549.63	276.62
2553.299	266.62
2556.964	270.62
2560.626	267.62
2564.285	262.62
2567.941	276.62
2571.594	262.62
2575.243	253.62
2578.89	254.62
2582.533	265.62
2586.173	260.62
2589.809	261.62
2593.443	245.62
2597.073	247.62
2600.701	242.62
2604.325	241.62
2607.946	237.62
2611.564	236.62
2615.178	236.62
2618.79	238.62
2622.398	226.62
2626.004	223.62
2629.606	225.62
2633.205	229.62
2636.801	216.62
2640.394	210.62
2643.983	211.62
2647.57	202.62
2651.153	199.62
2654.734	197.62
2658.311	194.62
2661.885	178.62
2665.456	195.62
2669.025	179.62
2672.589	180.62
2676.151	169.62
2679.71	183.62
2683.266	174.62
2686.819	172.62
2690.368	166.62
2693.915	163.62
2697.458	144.62
2700.999	148.62
2704.536	144.62
2708.071	142.62
2711.602	143.62
2715.13	138.62
2718.656	137.62
2722.178	130.62
2725.697	120.62
2729.214	125.62
2732.727	136.62
2736.237	130.62
2739.744	120.62
2743.249	122.62
2746.75	125.62
2750.248	129.62
2753.743	127.62
2757.236	134.62
2760.725	128.62
2764.211	117.62
2767.695	131.62
2771.175	129.62
2774.652	125.62
2778.127	115.62
2781.598	119.62
2785.067	116.62
2788.532	120.62
2791.995	104.62
2795.455	119.62
2798.911	116.62
2802.365	104.62
2805.816	112.62
2809.264	105.62
2812.709	112.62
2816.151	106.62
2819.59	113.62
2823.026	114.62
2826.46	112.62
2829.89	105.62
2833.318	101.62
2836.742	101.62
2840.164	102.62
2843.583	96.62
2846.999	107.62
2850.412	85.62
2853.822	97.62
2857.229	103.62
2860.634	100.62
2864.035	88.62
2867.434	97.62
2870.83	90.62
2874.223	89.62
2877.613	80.62
2881	78.62
2884.385	78.62
2887.766	67.62
2891.145	68.62
2894.521	73.62
2897.894	68.62
2901.264	64.62
2904.631	54.62
2907.996	57.62
2911.358	54.62
2914.717	56.62
2918.073	48.62
2921.426	51.62
2924.777	42.62
2928.124	44.62
2931.469	46.62
2934.811	46.62
2938.15	40.62
2941.487	40.62
2944.821	39.62
2948.152	24.62
2951.48	29.62
2954.805	35.62
2958.128	25.62
2961.447	35.62
2964.765	19.62
2968.079	30.62
2971.39	16.62
2974.699	25.62
2978.005	24.62
2981.308	18.62
2984.609	20.62
2987.907	21.62
2991.202	18.62
2994.494	20.62
2997.784	20.62
3001.07	23.62
3004.355	19.62
3007.636	22.62
3010.915	13.62
3014.191	18.62
3017.464	12.62
3020.734	12.62
3024.002	8.62
3027.267	8.62
3030.53	5.62
3033.789	10.62
3037.046	-1.38
3040.301	-0.38
3043.552	-8.38
3046.801	-5.38
3050.048	-0.38
3053.291	-8.38
3056.532	-12.38
3059.771	3.62
3063.006	-7.38
3066.239	-2.38
3069.469	-9.38
3072.697	-9.38
3075.922	-12.38
3079.144	-11.38
3082.364	-9.38
3085.581	-9.38
3088.795	-17.38
3092.007	-20.38
3095.216	-14.38
3098.423	-11.38
3101.627	-15.38
3104.828	-15.38
3108.026	-14.38
3111.222	-24.38
3114.416	-14.38
3117.607	-18.38
3120.795	-19.38
3123.98	-17.38
3127.163	-23.38
3130.344	-16.38
3133.521	-22.38
3136.696	-21.38
3139.869	-20.38
3143.039	-22.38
3146.206	-22.38
3149.371	-21.38
3152.533	-23.38
3155.693	-28.38
3158.85	-26.38
3162.005	-29.38
3165.157	-34.38
3168.306	-32.38
3171.453	-33.38
3174.597	-29.38
3177.739	-38.38
3180.878	-42.38
3184.014	-42.38
3187.149	-42.38
3190.28	-38.38
3193.409	-42.38
3196.536	-46.38
3199.659	-45.38
3202.781	-47.38
3205.9	-48.38
3209.016	-56.38
3212.13	-52.38
3215.241	-52.38
3218.35	-47.38
3221.456	-54.38
3224.56	-51.38
3227.661	-55.38
3230.76	-56.38
3233.856	-58.38
3236.95	-62.38
3240.041	-57.38
3243.13	-59.38
3246.216	-56.38
3249.3	-62.38
3252.382	-53.38
3255.46	-58.38
3258.537	-34.38
3261.611	-51.38
3264.682	-64.38
3267.751	-54.38
3270.818	-65.38
3273.882	-61.38
3276.943	-62.38
3280.002	-59.38
3283.059	-68.38
3286.113	-58.38
3289.165	-65.38
3292.214	-65.38
3295.261	-65.38
3298.306	-60.38
3301.348	-67.38
3304.387	-73.38
3307.425	-67.38
3310.459	-75.38
3313.492	-72.38
3316.521	-77.38
3319.549	-69.38
3322.574	-75.38
3325.597	-77.38
3328.617	-71.38
3331.635	-75.38
3334.65	-69.38
3337.663	-79.38
3340.674	-71.38
3343.682	-74.38
3346.688	-76.38
3349.691	-81.38
3352.692	-73.38
3355.691	-76.38
3358.687	-77.38
3361.681	-78.38
3364.673	-79.38
3367.662	-74.38
3370.649	-79.38
3373.633	-77.38
3376.615	-75.38
3379.595	-85.38
3382.572	-77.38
3385.547	-78.38
3388.52	-74.38
3391.49	-79.38
3394.458	-82.38
3397.424	-73.38
3400.387	-76.38
3403.348	-79.38
3406.307	-75.38
3409.263	-73.38
3412.217	-74.38
3415.168	-81.38
3418.118	-80.38
3421.065	-81.38
3424.009	-78.38
3426.951	-81.38
3429.891	-77.38
3432.829	-82.38
3435.764	-80.38
3438.697	-77.38
3441.628	-82.38
3444.557	-80.38
3447.483	-80.38
3450.407	-90.38
3453.328	-75.38
3456.247	-87.38
3459.164	-88.38
3462.079	-83.38
3464.991	-83.38
3467.902	-91.38
3470.809	-87.38
3473.715	-87.38
3476.618	-87.38
3479.519	-83.38
3482.418	-84.38
3485.315	-91.38
3488.209	-95.38
3491.101	-92.38
3493.99	-84.38
3496.878	-90.38
3499.763	-87.38
3502.646	-87.38
3505.527	-94.38
3508.405	-95.38
3511.281	-94.38
3514.155	-88.38
3517.027	-90.38
3519.897	-85.38
3522.764	-85.38
3525.629	-95.38
3528.492	-94.38
3531.352	-92.38
3534.211	-91.38
3537.067	-97.38
3539.921	-92.38
3542.773	-99.38
3545.622	-94.38
3548.469	-98.38
3551.315	-93.38
3554.157	-91.38
3556.998	-95.38
3559.837	-88.38
3562.673	-89.38
3565.507	-98.38
3568.339	-95.38
3571.169	-98.38
3573.996	-94.38
3576.822	-95.38
3579.645	-98.38
3582.466	-92.38
3585.285	-97.38
3588.101	-97.38
3590.916	-104.38
3593.728	-98.38
3596.538	-103.38
3599.346	-95.38
3602.152	-99.38
3604.956	-97.38
3607.757	-94.38
3610.556	-100.38
3613.354	-95.38
3616.149	-103.38
3618.942	-99.38
3621.732	-100.38
3624.521	-98.38
3627.307	-95.38
3630.092	-99.38
3632.874	-93.38
3635.654	-97.38
3638.432	-98.38
3641.208	-101.38
3643.982	-94.38
3646.753	-94.38
3649.523	-99.38
3652.29	-103.38
3655.055	-99.38
3657.818	-100.38
3660.579	-98.38
3663.338	-99.38
3666.095	-95.38
3668.849	-103.38
3671.602	-99.38
3674.352	-97.38
3677.101	-99.38
3679.847	-105.38
3682.591	-94.38
3685.333	-98.38
3688.073	-98.38
3690.811	-98.38
3693.547	-94.38
3696.281	-96.38
3699.013	-96.38
3701.742	-101.38
3704.47	-103.38
3707.195	-98.38
3709.919	-101.38
3712.64	-102.38
3715.359	-98.38
3718.076	-100.38
3720.792	-102.38
3723.505	-98.38
3726.216	-107.38
3728.925	-105.38
3731.632	-100.38
3734.336	-100.38
3737.039	-106.38
3739.74	-104.38
3742.439	-102.38
3745.136	-99.38
3747.83	-99.38
3750.523	-105.38
3753.213	-126.38
3755.902	-106.38
3758.589	-107.38
3761.273	-107.38
3763.956	-101.38
3766.636	-102.38
3769.315	-103.38
3771.991	-108.38
3774.665	-102.38
3777.338	-106.38
3780.008	-111.38
3782.677	-101.38
3785.343	-106.38
3788.007	-110.38
3790.67	-102.38
3793.33	-107.38
3795.989	-104.38
3798.645	-106.38
3801.299	-104.38
3803.952	-101.38
3806.602	-107.38
3809.251	-111.38
3811.897	-103.38
3814.542	-104.38
3817.184	-100.38
3819.825	-105.38
3822.463	-105.38
3825.1	-106.38
3827.735	-104.38
3830.367	-110.38
3832.998	-98.38
3835.627	-100.38
3838.253	-106.38
3840.878	-102.38
3843.501	-100.38
3846.122	-103.38
3848.741	-104.38
3851.358	-102.38
3853.973	-102.38
3856.586	-107.38
3859.197	-97.38
3861.806	-105.38
3864.414	-99.38
3867.019	-98.38
3869.622	-95.38
3872.224	-86.38
3874.823	-70.38
3877.421	-55.38
3880.016	-21.38
3882.61	5.62
3885.202	14.62
3887.792	-7.38
3890.38	-44.38
3892.966	-77.38
3895.55	-88.38
3898.132	-100.38
3900.713	-98.38
3903.291	-104.38
3905.868	-103.38
3908.442	-100.38
3911.015	-104.38
3913.586	-113.38
3916.155	-107.38
3918.722	-104.38
3921.287	-104.38
3923.85	-111.38
3926.411	-103.38
3928.971	-106.38
3931.528	-101.38
3934.084	-106.38
3936.638	-106.38
3939.19	-108.38
3941.74	-101.38
3944.288	-110.38
3946.834	-103.38
3949.378	-105.38
3951.921	-102.38
3954.462	-102.38
3957	-101.38
3959.537	-98.38
3962.072	-97.38
3964.606	-102.38
3967.137	-104.38
3969.667	-101.38
3972.194	-102.38
3974.72	-102.38
3977.244	-98.38
3979.766	-112.38
3982.286	-101.38
3984.805	-104.38
3987.321	-97.38
3989.836	-102.38
3992.349	-101.38
3994.86	-107.38
3997.369	-103.38
3999.877	-99.38
4002.382	-96.38
4004.886	-97.38
4007.388	-97.38
4009.888	-92.38
4012.386	-101.38
4014.883	-106.38
4017.377	-101.38
4019.87	-100.38
4022.361	-101.38
4024.85	-104.38
4027.338	-96.38
4029.823	-106.38
4032.307	-103.38
4034.789	-106.38
4037.269	-103.38
4039.747	-108.38
4042.224	-101.38
4044.699	-101.38
4047.172	-98.38
4049.643	-98.38
4052.112	-97.38
4054.58	-105.38
4057.046	-102.38
4059.51	-101.38
4061.972	-100.38
4064.432	-96.38
4066.891	-106.38
4069.348	-95.38
4071.803	-103.38
4074.256	-99.38
4076.708	-102.38
4079.158	-101.38
4081.606	-101.38
4084.052	-106.38
4086.497	-104.38
4088.939	-103.38
4091.38	-102.38
4093.819	-101.38
4096.257	-104.38
4098.693	-107.38
4101.127	-108.38
4103.559	-108.38
4105.989	12.62
4108.418	24.62
4110.845	10.62
4113.27	9.62
4115.694	10.62
4118.115	19.62
4120.535	-101.38
4122.954	-105.38
4125.37	-104.38
4127.785	-104.38
4130.198	-102.38
4132.609	-108.38
4135.019	-106.38
4137.427	-109.38
4139.833	-108.38
4142.237	-113.38