File: Data/Raman/2017-08-29 - Alluminum 2/Aug 29 2017 - Aluminum 2/EC 11 1_RamanShift_3.txt
Data from EC 11 1_RamanShift_3.txt Node

Date: Tue Aug 29 12:21:07 IDT 2017
User: aro
Spectrometer: QEPB0276
Trigger mode: 0
Integration Time (sec): 3.000000E1
Scans to average: 1
Electric dark correction enabled: true
Nonlinearity correction enabled: false
Boxcar width: 0
XAxis mode: Raman Shifts
Number of Pixels in Spectrum: 1044
>>>>>Begin Spectral Data<<<<<
160.701	12.5
166.742	47.5
172.777	126.5
178.805	382.5
184.826	986.5
190.841	2048.5
196.849	3280.5
202.85	4238.5
208.845	4670.5
214.833	4780.5
220.815	4871.5
226.789	5031.5
232.758	5142.5
238.719	5290.5
244.674	5410.5
250.623	5487.5
256.565	5550.5
262.5	5618.5
268.429	5667.5
274.351	5707.5
280.267	5804.5
286.176	5860.5
292.079	5937.5
297.975	5972.5
303.865	6036.5
309.748	6111.5
315.625	6122.5
321.495	6128.5
327.359	6152.5
333.217	6176.5
339.068	6192.5
344.912	6201.5
350.751	6187.5
356.583	6235.5
362.408	6218.5
368.227	6268.5
374.04	6347.5
379.847	6440.5
385.647	6562.5
391.44	6501.5
397.228	6383.5
403.009	6394.5
408.784	6588.5
414.553	6994.5
420.315	7469.5
426.071	7473.5
431.821	6979.5
437.565	6551.5
443.302	6421.5
449.033	6342.5
454.758	6289.5
460.477	6235.5
466.189	6192.5
471.896	6170.5
477.596	6123.5
483.29	6101.5
488.978	6061.5
494.66	6058.5
500.335	5944.5
506.005	5748.5
511.668	5590.5
517.325	5390.5
522.977	5280.5
528.622	5182.5
534.261	5114.5
539.894	5073.5
545.521	5024.5
551.141	5005.5
556.756	4961.5
562.365	4936.5
567.968	4931.5
573.565	4910.5
579.155	4919.5
584.74	4892.5
590.319	4869.5
595.892	4843.5
601.459	4838.5
607.02	4818.5
612.575	4764.5
618.124	4743.5
623.667	4700.5
629.204	4678.5
634.735	4708.5
640.261	4801.5
645.781	4943.5
651.294	4999.5
656.802	4882.5
662.304	4703.5
667.8	4584.5
673.29	4560.5
678.775	4511.5
684.254	4500.5
689.726	4477.5
695.193	4444.5
700.655	4428.5
706.11	4410.5
711.56	4395.5
717.004	4371.5
722.442	4349.5
727.874	4339.5
733.301	4331.5
738.722	4360.5
744.137	4361.5
749.547	4406.5
754.951	4415.5
760.349	4418.5
765.741	4377.5
771.128	4356.5
776.509	4373.5
781.885	4399.5
787.254	4425.5
792.618	4441.5
797.977	4382.5
803.33	4354.5
808.677	4329.5
814.019	4319.5
819.355	4281.5
824.686	4298.5
830.011	4233.5
835.33	4227.5
840.644	4203.5
845.952	4217.5
851.255	4188.5
856.552	4203.5
861.844	4158.5
867.13	4134.5
872.41	4123.5
877.686	4105.5
882.955	4079.5
888.219	4039.5
893.478	4008.5
898.731	3958.5
903.979	3933.5
909.221	3916.5
914.458	3900.5
919.69	3904.5
924.916	3925.5
930.136	3923.5
935.351	3951.5
940.561	3933.5
945.766	3922.5
950.965	3912.5
956.158	3898.5
961.347	3843.5
966.529	3855.5
971.707	3774.5
976.879	3719.5
982.046	3689.5
987.208	3673.5
992.364	3679.5
997.515	3697.5
1002.66	3717.5
1007.801	3760.5
1012.936	3806.5
1018.066	3801.5
1023.19	3810.5
1028.309	3796.5
1033.423	3792.5
1038.532	3743.5
1043.636	3754.5
1048.734	3735.5
1053.827	3678.5
1058.915	3632.5
1063.998	3586.5
1069.075	3610.5
1074.147	3600.5
1079.214	3629.5
1084.276	3645.5
1089.333	3653.5
1094.385	3637.5
1099.431	3648.5
1104.472	3661.5
1109.509	3628.5
1114.54	3594.5
1119.565	3494.5
1124.586	3464.5
1129.602	3447.5
1134.613	3433.5
1139.618	3394.5
1144.619	3386.5
1149.614	3404.5
1154.604	3399.5
1159.589	3408.5
1164.57	3393.5
1169.545	3403.5
1174.515	3431.5
1179.48	3396.5
1184.44	3382.5
1189.395	3343.5
1194.345	3330.5
1199.29	3301.5
1204.23	3283.5
1209.165	3315.5
1214.095	3327.5
1219.021	3348.5
1223.941	3362.5
1228.856	3372.5
1233.766	3362.5
1238.672	3349.5
1243.572	3351.5
1248.467	3320.5
1253.358	3268.5
1258.244	3195.5
1263.124	3169.5
1268	3101.5
1272.871	3056.5
1277.737	3052.5
1282.599	3042.5
1287.455	3034.5
1292.306	3047.5
1297.153	3045.5
1301.995	3054.5
1306.832	3038.5
1311.664	3057.5
1316.491	3031.5
1321.314	3005.5
1326.132	2958.5
1330.945	2922.5
1335.753	2844.5
1340.556	2773.5
1345.354	2721.5
1350.148	2679.5
1354.937	2664.5
1359.722	2678.5
1364.501	2688.5
1369.276	2693.5
1374.046	2729.5
1378.811	2767.5
1383.572	2773.5
1388.327	2798.5
1393.079	2763.5
1397.825	2734.5
1402.567	2684.5
1407.304	2619.5
1412.036	2597.5
1416.764	2584.5
1421.487	2556.5
1426.205	2548.5
1430.919	2568.5
1435.628	2562.5
1440.333	2586.5
1445.032	2568.5
1449.727	2593.5
1454.418	2573.5
1459.104	2548.5
1463.785	2492.5
1468.462	2459.5
1473.134	2437.5
1477.802	2377.5
1482.465	2359.5
1487.123	2359.5
1491.777	2339.5
1496.426	2337.5
1501.071	2399.5
1505.711	2438.5
1510.347	2453.5
1514.978	2482.5
1519.604	2506.5
1524.226	2499.5
1528.844	2493.5
1533.457	2486.5
1538.065	2469.5
1542.669	2440.5
1547.269	2394.5
1551.864	2374.5
1556.454	2366.5
1561.041	2337.5
1565.622	2344.5
1570.199	2297.5
1574.772	2303.5
1579.34	2283.5
1583.904	2281.5
1588.464	2262.5
1593.019	2223.5
1597.569	2215.5
1602.115	2167.5
1606.657	2138.5
1611.195	2116.5
1615.728	2074.5
1620.256	2078.5
1624.78	2046.5
1629.3	2026.5
1633.816	2016.5
1638.327	2020.5
1642.834	2024.5
1647.336	2032.5
1651.834	2052.5
1656.328	2043.5
1660.817	2043.5
1665.302	2045.5
1669.783	2011.5
1674.259	2012.5
1678.732	1955.5
1683.199	1933.5
1687.663	1898.5
1692.122	1866.5
1696.577	1851.5
1701.028	1870.5
1705.474	1921.5
1709.917	1924.5
1714.355	1952.5
1718.788	1951.5
1723.218	1943.5
1727.643	1934.5
1732.064	1895.5
1736.481	1858.5
1740.893	1813.5
1745.301	1793.5
1749.705	1745.5
1754.105	1692.5
1758.501	1648.5
1762.893	1631.5
1767.28	1581.5
1771.663	1554.5
1776.042	1544.5
1780.417	1528.5
1784.787	1541.5
1789.154	1568.5
1793.516	1578.5
1797.874	1604.5
1802.228	1617.5
1806.578	1650.5
1810.924	1659.5
1815.266	1640.5
1819.603	1596.5
1823.937	1566.5
1828.266	1534.5
1832.591	1516.5
1836.913	1523.5
1841.23	1507.5
1845.543	1478.5
1849.852	1489.5
1854.156	1469.5
1858.457	1462.5
1862.754	1469.5
1867.047	1479.5
1871.335	1482.5
1875.62	1474.5
1879.9	1455.5
1884.177	1461.5
1888.449	1447.5
1892.718	1443.5
1896.982	1422.5
1901.243	1410.5
1905.499	1411.5
1909.752	1409.5
1914	1421.5
1918.245	1417.5
1922.485	1444.5
1926.722	1449.5
1930.954	1461.5
1935.183	1471.5
1939.408	1489.5
1943.628	1492.5
1947.845	1490.5
1952.058	1480.5
1956.267	1451.5
1960.472	1428.5
1964.673	1396.5
1968.87	1366.5
1973.063	1331.5
1977.252	1313.5
1981.438	1288.5
1985.619	1271.5
1989.797	1249.5
1993.971	1243.5
1998.14	1224.5
2002.306	1208.5
2006.469	1238.5
2010.627	1202.5
2014.781	1200.5
2018.932	1181.5
2023.078	1184.5
2027.221	1152.5
2031.36	1123.5
2035.495	1114.5
2039.627	1112.5
2043.754	1099.5
2047.878	1084.5
2051.998	1063.5
2056.114	1087.5
2060.226	1074.5
2064.334	1066.5
2068.439	1087.5
2072.54	1091.5
2076.637	1085.5
2080.73	1095.5
2084.82	1110.5
2088.906	1124.5
2092.988	1121.5
2097.066	1124.5
2101.14	1095.5
2105.211	1094.5
2109.278	1076.5
2113.342	1079.5
2117.401	1069.5
2121.457	1064.5
2125.509	1053.5
2129.558	1032.5
2133.602	1030.5
2137.643	1024.5
2141.681	1019.5
2145.714	1002.5
2149.744	987.5
2153.77	995.5
2157.793	980.5
2161.812	961.5
2165.827	958.5
2169.838	937.5
2173.846	926.5
2177.851	909.5
2181.851	898.5
2185.848	892.5
2189.841	886.5
2193.831	882.5
2197.817	879.5
2201.799	875.5
2205.778	868.5
2209.753	859.5
2213.725	868.5
2217.693	861.5
2221.657	865.5
2225.618	864.5
2229.575	860.5
2233.529	851.5
2237.479	855.5
2241.425	845.5
2245.368	819.5
2249.307	827.5
2253.243	800.5
2257.175	802.5
2261.104	794.5
2265.029	785.5
2268.95	774.5
2272.868	767.5
2276.783	759.5
2280.694	742.5
2284.601	738.5
2288.505	751.5
2292.405	730.5
2296.302	722.5
2300.195	716.5
2304.085	714.5
2307.971	706.5
2311.854	695.5
2315.734	680.5
2319.609	676.5
2323.482	673.5
2327.351	682.5
2331.216	689.5
2335.078	685.5
2338.937	668.5
2342.792	657.5
2346.643	647.5
2350.492	653.5
2354.336	644.5
2358.178	646.5
2362.015	651.5
2365.85	651.5
2369.681	654.5
2373.508	660.5
2377.333	649.5
2381.153	649.5
2384.971	659.5
2388.785	643.5
2392.595	647.5
2396.402	646.5
2400.206	628.5
2404.007	631.5
2407.804	627.5
2411.597	626.5
2415.388	617.5
2419.174	616.5
2422.958	608.5
2426.738	604.5
2430.515	605.5
2434.289	607.5
2438.059	589.5
2441.825	595.5
2445.589	582.5
2449.349	582.5
2453.106	564.5
2456.859	562.5
2460.61	572.5
2464.356	553.5
2468.1	553.5
2471.84	548.5
2475.577	550.5
2479.311	537.5
2483.041	536.5
2486.768	528.5
2490.492	527.5
2494.213	529.5
2497.93	525.5
2501.644	517.5
2505.355	526.5
2509.062	528.5
2512.766	520.5
2516.467	515.5
2520.165	514.5
2523.859	510.5
2527.551	512.5
2531.239	508.5
2534.923	497.5
2538.605	504.5
2542.283	504.5
2545.958	494.5
2549.63	495.5
2553.299	497.5
2556.964	505.5
2560.626	478.5
2564.285	478.5
2567.941	498.5
2571.594	478.5
2575.243	479.5
2578.89	475.5
2582.533	479.5
2586.173	461.5
2589.809	456.5
2593.443	452.5
2597.073	458.5
2600.701	450.5
2604.325	444.5
2607.946	437.5
2611.564	434.5
2615.178	419.5
2618.79	420.5
2622.398	411.5
2626.004	410.5
2629.606	408.5
2633.205	403.5
2636.801	394.5
2640.394	389.5
2643.983	377.5
2647.57	372.5
2651.153	370.5
2654.734	362.5
2658.311	358.5
2661.885	343.5
2665.456	343.5
2669.025	329.5
2672.589	342.5
2676.151	329.5
2679.71	317.5
2683.266	325.5
2686.819	312.5
2690.368	316.5
2693.915	302.5
2697.458	291.5
2700.999	290.5
2704.536	280.5
2708.071	260.5
2711.602	267.5
2715.13	261.5
2718.656	256.5
2722.178	244.5
2725.697	243.5
2729.214	237.5
2732.727	248.5
2736.237	247.5
2739.744	234.5
2743.249	241.5
2746.75	235.5
2750.248	235.5
2753.743	237.5
2757.236	247.5
2760.725	242.5
2764.211	246.5
2767.695	253.5
2771.175	247.5
2774.652	236.5
2778.127	235.5
2781.598	229.5
2785.067	224.5
2788.532	230.5
2791.995	220.5
2795.455	221.5
2798.911	220.5
2802.365	217.5
2805.816	225.5
2809.264	208.5
2812.709	214.5
2816.151	218.5
2819.59	211.5
2823.026	210.5
2826.46	211.5
2829.89	205.5
2833.318	201.5
2836.742	206.5
2840.164	196.5
2843.583	209.5
2846.999	206.5
2850.412	199.5
2853.822	203.5
2857.229	189.5
2860.634	194.5
2864.035	185.5
2867.434	195.5
2870.83	194.5
2874.223	187.5
2877.613	183.5
2881	170.5
2884.385	169.5
2887.766	173.5
2891.145	168.5
2894.521	161.5
2897.894	148.5
2901.264	146.5
2904.631	142.5
2907.996	133.5
2911.358	139.5
2914.717	133.5
2918.073	128.5
2921.426	126.5
2924.777	121.5
2928.124	117.5
2931.469	135.5
2934.811	113.5
2938.15	106.5
2941.487	107.5
2944.821	102.5
2948.152	97.5
2951.48	88.5
2954.805	101.5
2958.128	84.5
2961.447	93.5
2964.765	76.5
2968.079	80.5
2971.39	76.5
2974.699	75.5
2978.005	79.5
2981.308	78.5
2984.609	68.5
2987.907	80.5
2991.202	67.5
2994.494	77.5
2997.784	74.5
3001.07	71.5
3004.355	67.5
3007.636	57.5
3010.915	60.5
3014.191	63.5
3017.464	57.5
3020.734	53.5
3024.002	46.5
3027.267	44.5
3030.53	41.5
3033.789	38.5
3037.046	37.5
3040.301	25.5
3043.552	26.5
3046.801	27.5
3050.048	25.5
3053.291	25.5
3056.532	24.5
3059.771	23.5
3063.006	16.5
3066.239	22.5
3069.469	22.5
3072.697	16.5
3075.922	8.5
3079.144	17.5
3082.364	12.5
3085.581	12.5
3088.795	5.5
3092.007	-0.5
3095.216	12.5
3098.423	6.5
3101.627	13.5
3104.828	0.5
3108.026	4.5
3111.222	0.5
3114.416	9.5
3117.607	3.5
3120.795	0.5
3123.98	-1.5
3127.163	-1.5
3130.344	-3.5
3133.521	-8.5
3136.696	0.5
3139.869	-4.5
3143.039	-9.5
3146.206	-8.5
3149.371	-4.5
3152.533	-13.5
3155.693	-15.5
3158.85	-14.5
3162.005	-21.5
3165.157	-21.5
3168.306	-20.5
3171.453	-23.5
3174.597	-22.5
3177.739	-23.5
3180.878	-31.5
3184.014	-40.5
3187.149	-31.5
3190.28	-36.5
3193.409	-36.5
3196.536	-46.5
3199.659	-43.5
3202.781	-42.5
3205.9	-43.5
3209.016	-51.5
3212.13	-53.5
3215.241	-47.5
3218.35	-51.5
3221.456	-49.5
3224.56	-54.5
3227.661	-56.5
3230.76	-60.5
3233.856	-59.5
3236.95	-60.5
3240.041	-57.5
3243.13	-65.5
3246.216	-61.5
3249.3	-64.5
3252.382	-64.5
3255.46	-64.5
3258.537	-37.5
3261.611	-65.5
3264.682	-65.5
3267.751	-55.5
3270.818	-65.5
3273.882	-69.5
3276.943	-69.5
3280.002	-64.5
3283.059	-70.5
3286.113	-67.5
3289.165	-64.5
3292.214	-68.5
3295.261	-68.5
3298.306	-69.5
3301.348	-78.5
3304.387	-76.5
3307.425	-75.5
3310.459	-84.5
3313.492	-77.5
3316.521	-88.5
3319.549	-83.5
3322.574	-87.5
3325.597	-90.5
3328.617	-85.5
3331.635	-87.5
3334.65	-84.5
3337.663	-92.5
3340.674	-79.5
3343.682	-89.5
3346.688	-85.5
3349.691	-88.5
3352.692	-90.5
3355.691	-88.5
3358.687	-91.5
3361.681	-89.5
3364.673	-94.5
3367.662	-95.5
3370.649	-97.5
3373.633	-93.5
3376.615	-90.5
3379.595	-94.5
3382.572	-93.5
3385.547	-89.5
3388.52	-92.5
3391.49	-94.5
3394.458	-103.5
3397.424	-92.5
3400.387	-90.5
3403.348	-94.5
3406.307	-94.5
3409.263	-96.5
3412.217	-93.5
3415.168	-101.5
3418.118	-101.5
3421.065	-99.5
3424.009	-96.5
3426.951	-101.5
3429.891	-100.5
3432.829	-105.5
3435.764	-101.5
3438.697	-97.5
3441.628	-101.5
3444.557	-100.5
3447.483	-104.5
3450.407	-101.5
3453.328	-99.5
3456.247	-106.5
3459.164	-107.5
3462.079	-104.5
3464.991	-108.5
3467.902	-112.5
3470.809	-116.5
3473.715	-104.5
3476.618	-113.5
3479.519	-103.5
3482.418	-109.5
3485.315	-108.5
3488.209	-111.5
3491.101	-107.5
3493.99	-110.5
3496.878	-115.5
3499.763	-113.5
3502.646	-112.5
3505.527	-118.5
3508.405	-115.5
3511.281	-120.5
3514.155	-107.5
3517.027	-116.5
3519.897	-115.5
3522.764	-108.5
3525.629	-119.5
3528.492	-111.5
3531.352	-115.5
3534.211	-120.5
3537.067	-115.5
3539.921	-119.5
3542.773	-119.5
3545.622	-114.5
3548.469	-120.5
3551.315	-112.5
3554.157	-117.5
3556.998	-125.5
3559.837	-117.5
3562.673	-116.5
3565.507	-122.5
3568.339	-119.5
3571.169	-123.5
3573.996	-120.5
3576.822	-124.5
3579.645	-124.5
3582.466	-117.5
3585.285	-127.5
3588.101	-126.5
3590.916	-129.5
3593.728	-117.5
3596.538	-131.5
3599.346	-128.5
3602.152	-125.5
3604.956	-125.5
3607.757	-128.5
3610.556	-121.5
3613.354	-122.5
3616.149	-135.5
3618.942	-131.5
3621.732	-126.5
3624.521	-128.5
3627.307	-127.5
3630.092	-123.5
3632.874	-131.5
3635.654	-123.5
3638.432	-126.5
3641.208	-128.5
3643.982	-129.5
3646.753	-129.5
3649.523	-130.5
3652.29	-132.5
3655.055	-133.5
3657.818	-127.5
3660.579	-130.5
3663.338	-127.5
3666.095	-127.5
3668.849	-132.5
3671.602	-127.5
3674.352	-130.5
3677.101	-126.5
3679.847	-134.5
3682.591	-129.5
3685.333	-127.5
3688.073	-131.5
3690.811	-126.5
3693.547	-131.5
3696.281	-131.5
3699.013	-127.5
3701.742	-130.5
3704.47	-130.5
3707.195	-125.5
3709.919	-124.5
3712.64	-131.5
3715.359	-132.5
3718.076	-124.5
3720.792	-130.5
3723.505	-128.5
3726.216	-136.5
3728.925	-132.5
3731.632	-129.5
3734.336	-129.5
3737.039	-134.5
3739.74	-132.5
3742.439	-130.5
3745.136	-133.5
3747.83	-133.5
3750.523	-132.5
3753.213	-147.5
3755.902	-133.5
3758.589	-132.5
3761.273	-141.5
3763.956	-132.5
3766.636	-132.5
3769.315	-131.5
3771.991	-135.5
3774.665	-127.5
3777.338	-133.5
3780.008	-140.5
3782.677	-134.5
3785.343	-137.5
3788.007	-138.5
3790.67	-131.5
3793.33	-127.5
3795.989	-127.5
3798.645	-139.5
3801.299	-135.5
3803.952	-132.5
3806.602	-135.5
3809.251	-132.5
3811.897	-133.5
3814.542	-135.5
3817.184	-128.5
3819.825	-132.5
3822.463	-135.5
3825.1	-132.5
3827.735	-134.5
3830.367	-140.5
3832.998	-130.5
3835.627	-132.5
3838.253	-131.5
3840.878	-128.5
3843.501	-130.5
3846.122	-137.5
3848.741	-133.5
3851.358	-129.5
3853.973	-127.5
3856.586	-132.5
3859.197	-131.5
3861.806	-132.5
3864.414	-130.5
3867.019	-131.5
3869.622	-131.5
3872.224	-114.5
3874.823	-98.5
3877.421	-80.5
3880.016	-50.5
3882.61	-21.5
3885.202	-10.5
3887.792	-42.5
3890.38	-80.5
3892.966	-104.5
3895.55	-115.5
3898.132	-130.5
3900.713	-135.5
3903.291	-133.5
3905.868	-137.5
3908.442	-136.5
3911.015	-134.5
3913.586	-141.5
3916.155	-136.5
3918.722	-134.5
3921.287	-139.5
3923.85	-143.5
3926.411	-136.5
3928.971	-137.5
3931.528	-140.5
3934.084	-143.5
3936.638	-144.5
3939.19	-138.5
3941.74	-140.5
3944.288	-139.5
3946.834	-137.5
3949.378	-141.5
3951.921	-130.5
3954.462	-137.5
3957	-135.5
3959.537	-140.5
3962.072	-128.5
3964.606	-139.5
3967.137	-132.5
3969.667	-136.5
3972.194	-132.5
3974.72	-134.5
3977.244	-135.5
3979.766	-143.5
3982.286	-133.5
3984.805	-131.5
3987.321	-130.5
3989.836	-131.5
3992.349	-128.5
3994.86	-132.5
3997.369	-133.5
3999.877	-127.5
4002.382	-128.5
4004.886	-131.5
4007.388	-126.5
4009.888	-133.5
4012.386	-131.5
4014.883	-131.5
4017.377	-129.5
4019.87	-129.5
4022.361	-133.5
4024.85	-131.5
4027.338	-123.5
4029.823	-127.5
4032.307	-131.5
4034.789	-129.5
4037.269	-128.5
4039.747	-131.5
4042.224	-130.5
4044.699	-133.5
4047.172	-126.5
4049.643	-130.5
4052.112	-128.5
4054.58	-136.5
4057.046	-133.5
4059.51	-137.5
4061.972	-132.5
4064.432	-130.5
4066.891	-132.5
4069.348	-134.5
4071.803	-131.5
4074.256	-128.5
4076.708	-135.5
4079.158	-130.5
4081.606	-133.5
4084.052	-137.5
4086.497	-136.5
4088.939	-136.5
4091.38	-135.5
4093.819	-134.5
4096.257	-137.5
4098.693	-139.5
4101.127	-140.5
4103.559	-139.5
4105.989	-3.5
4108.418	-3.5
4110.845	-9.5
4113.27	-10.5
4115.694	-0.5
4118.115	15.5
4120.535	-132.5
4122.954	-129.5
4125.37	-135.5
4127.785	-135.5
4130.198	-131.5
4132.609	-134.5
4135.019	-142.5
4137.427	-141.5
4139.833	-140.5
4142.237	-144.5