File: Data/Raman/2017-08-29 - Alluminum 2/Aug 29 2017 - Aluminum 2/EC 12 3_RamanShift_3.txt
Data from EC 12 3_RamanShift_3.txt Node

Date: Tue Aug 29 12:38:07 IDT 2017
User: aro
Spectrometer: QEPB0276
Trigger mode: 0
Integration Time (sec): 3.000000E1
Scans to average: 1
Electric dark correction enabled: true
Nonlinearity correction enabled: false
Boxcar width: 0
XAxis mode: Raman Shifts
Number of Pixels in Spectrum: 1044
>>>>>Begin Spectral Data<<<<<
160.701	29.88
166.742	34.88
172.777	67.88
178.805	182.88
184.826	458.88
190.841	913.88
196.849	1446.88
202.85	1847.88
208.845	2002.88
214.833	2030.88
220.815	2022.88
226.789	2061.88
232.758	2121.88
238.719	2155.88
244.674	2188.88
250.623	2241.88
256.565	2236.88
262.5	2265.88
268.429	2297.88
274.351	2340.88
280.267	2381.88
286.176	2421.88
292.079	2451.88
297.975	2492.88
303.865	2513.88
309.748	2551.88
315.625	2577.88
321.495	2581.88
327.359	2613.88
333.217	2602.88
339.068	2663.88
344.912	2672.88
350.751	2687.88
356.583	2719.88
362.408	2754.88
368.227	2783.88
374.04	2911.88
379.847	3039.88
385.647	3132.88
391.44	3065.88
397.228	2948.88
403.009	2950.88
408.784	3209.88
414.553	3652.88
420.315	4201.88
426.071	4243.88
431.821	3649.88
437.565	3164.88
443.302	2991.88
449.033	2908.88
454.758	2867.88
460.477	2823.88
466.189	2742.88
471.896	2717.88
477.596	2681.88
483.29	2668.88
488.978	2666.88
494.66	2634.88
500.335	2515.88
506.005	2336.88
511.668	2152.88
517.325	1972.88
522.977	1834.88
528.622	1722.88
534.261	1661.88
539.894	1610.88
545.521	1561.88
551.141	1539.88
556.756	1526.88
562.365	1490.88
567.968	1479.88
573.565	1485.88
579.155	1489.88
584.74	1491.88
590.319	1477.88
595.892	1457.88
601.459	1450.88
607.02	1475.88
612.575	1451.88
618.124	1417.88
623.667	1399.88
629.204	1392.88
634.735	1422.88
640.261	1551.88
645.781	1726.88
651.294	1794.88
656.802	1660.88
662.304	1435.88
667.8	1341.88
673.29	1303.88
678.775	1274.88
684.254	1273.88
689.726	1263.88
695.193	1242.88
700.655	1246.88
706.11	1222.88
711.56	1219.88
717.004	1218.88
722.442	1227.88
727.874	1215.88
733.301	1235.88
738.722	1249.88
744.137	1269.88
749.547	1317.88
754.951	1367.88
760.349	1357.88
765.741	1305.88
771.128	1288.88
776.509	1301.88
781.885	1327.88
787.254	1375.88
792.618	1368.88
797.977	1376.88
803.33	1372.88
808.677	1348.88
814.019	1345.88
819.355	1321.88
824.686	1338.88
830.011	1303.88
835.33	1268.88
840.644	1262.88
845.952	1262.88
851.255	1225.88
856.552	1217.88
861.844	1174.88
867.13	1163.88
872.41	1153.88
877.686	1119.88
882.955	1112.88
888.219	1114.88
893.478	1079.88
898.731	1084.88
903.979	1080.88
909.221	1062.88
914.458	1070.88
919.69	1063.88
924.916	1074.88
930.136	1066.88
935.351	1063.88
940.561	1061.88
945.766	1061.88
950.965	1075.88
956.158	1068.88
961.347	1046.88
966.529	1051.88
971.707	1030.88
976.879	1021.88
982.046	1010.88
987.208	1006.88
992.364	1020.88
997.515	1015.88
1002.66	1008.88
1007.801	1039.88
1012.936	1039.88
1018.066	1024.88
1023.19	1044.88
1028.309	1053.88
1033.423	1061.88
1038.532	1073.88
1043.636	1074.88
1048.734	1075.88
1053.827	1062.88
1058.915	1068.88
1063.998	1057.88
1069.075	1053.88
1074.147	1041.88
1079.214	1040.88
1084.276	1070.88
1089.333	1032.88
1094.385	1053.88
1099.431	1049.88
1104.472	1038.88
1109.509	1010.88
1114.54	993.88
1119.565	985.88
1124.586	956.88
1129.602	945.88
1134.613	953.88
1139.618	945.88
1144.619	942.88
1149.614	951.88
1154.604	957.88
1159.589	961.88
1164.57	981.88
1169.545	992.88
1174.515	979.88
1179.48	978.88
1184.44	970.88
1189.395	964.88
1194.345	947.88
1199.29	958.88
1204.23	943.88
1209.165	957.88
1214.095	959.88
1219.021	978.88
1223.941	965.88
1228.856	968.88
1233.766	974.88
1238.672	977.88
1243.572	965.88
1248.467	955.88
1253.358	949.88
1258.244	903.88
1263.124	887.88
1268	887.88
1272.871	876.88
1277.737	855.88
1282.599	857.88
1287.455	860.88
1292.306	862.88
1297.153	865.88
1301.995	879.88
1306.832	872.88
1311.664	874.88
1316.491	872.88
1321.314	848.88
1326.132	854.88
1330.945	839.88
1335.753	836.88
1340.556	805.88
1345.354	807.88
1350.148	787.88
1354.937	802.88
1359.722	788.88
1364.501	794.88
1369.276	791.88
1374.046	795.88
1378.811	798.88
1383.572	800.88
1388.327	811.88
1393.079	779.88
1397.825	781.88
1402.567	750.88
1407.304	749.88
1412.036	747.88
1416.764	746.88
1421.487	751.88
1426.205	732.88
1430.919	731.88
1435.628	751.88
1440.333	741.88
1445.032	766.88
1449.727	762.88
1454.418	763.88
1459.104	759.88
1463.785	741.88
1468.462	726.88
1473.134	738.88
1477.802	724.88
1482.465	722.88
1487.123	712.88
1491.777	730.88
1496.426	721.88
1501.071	730.88
1505.711	739.88
1510.347	741.88
1514.978	759.88
1519.604	761.88
1524.226	772.88
1528.844	757.88
1533.457	753.88
1538.065	743.88
1542.669	732.88
1547.269	729.88
1551.864	727.88
1556.454	724.88
1561.041	720.88
1565.622	704.88
1570.199	699.88
1574.772	701.88
1579.34	676.88
1583.904	693.88
1588.464	676.88
1593.019	674.88
1597.569	676.88
1602.115	659.88
1606.657	645.88
1611.195	641.88
1615.728	631.88
1620.256	644.88
1624.78	631.88
1629.3	620.88
1633.816	621.88
1638.327	620.88
1642.834	628.88
1647.336	637.88
1651.834	636.88
1656.328	629.88
1660.817	650.88
1665.302	644.88
1669.783	638.88
1674.259	629.88
1678.732	620.88
1683.199	623.88
1687.663	612.88
1692.122	604.88
1696.577	597.88
1701.028	613.88
1705.474	610.88
1709.917	624.88
1714.355	624.88
1718.788	604.88
1723.218	611.88
1727.643	590.88
1732.064	587.88
1736.481	572.88
1740.893	569.88
1745.301	554.88
1749.705	552.88
1754.105	522.88
1758.501	527.88
1762.893	500.88
1767.28	505.88
1771.663	497.88
1776.042	496.88
1780.417	497.88
1784.787	496.88
1789.154	508.88
1793.516	504.88
1797.874	518.88
1802.228	507.88
1806.578	516.88
1810.924	526.88
1815.266	501.88
1819.603	496.88
1823.937	496.88
1828.266	472.88
1832.591	471.88
1836.913	464.88
1841.23	471.88
1845.543	462.88
1849.852	474.88
1854.156	460.88
1858.457	459.88
1862.754	457.88
1867.047	474.88
1871.335	475.88
1875.62	469.88
1879.9	482.88
1884.177	478.88
1888.449	465.88
1892.718	458.88
1896.982	460.88
1901.243	464.88
1905.499	446.88
1909.752	460.88
1914	457.88
1918.245	466.88
1922.485	463.88
1926.722	466.88
1930.954	481.88
1935.183	483.88
1939.408	472.88
1943.628	476.88
1947.845	476.88
1952.058	468.88
1956.267	465.88
1960.472	447.88
1964.673	438.88
1968.87	425.88
1973.063	427.88
1977.252	417.88
1981.438	411.88
1985.619	400.88
1989.797	391.88
1993.971	395.88
1998.14	391.88
2002.306	388.88
2006.469	391.88
2010.627	388.88
2014.781	380.88
2018.932	381.88
2023.078	372.88
2027.221	375.88
2031.36	355.88
2035.495	349.88
2039.627	355.88
2043.754	359.88
2047.878	349.88
2051.998	343.88
2056.114	346.88
2060.226	347.88
2064.334	352.88
2068.439	351.88
2072.54	355.88
2076.637	355.88
2080.73	363.88
2084.82	355.88
2088.906	359.88
2092.988	372.88
2097.066	370.88
2101.14	355.88
2105.211	360.88
2109.278	349.88
2113.342	353.88
2117.401	346.88
2121.457	336.88
2125.509	337.88
2129.558	323.88
2133.602	338.88
2137.643	323.88
2141.681	321.88
2145.714	322.88
2149.744	324.88
2153.77	311.88
2157.793	308.88
2161.812	312.88
2165.827	307.88
2169.838	297.88
2173.846	302.88
2177.851	289.88
2181.851	291.88
2185.848	282.88
2189.841	276.88
2193.831	285.88
2197.817	282.88
2201.799	279.88
2205.778	275.88
2209.753	269.88
2213.725	274.88
2217.693	273.88
2221.657	279.88
2225.618	280.88
2229.575	270.88
2233.529	281.88
2237.479	280.88
2241.425	270.88
2245.368	280.88
2249.307	264.88
2253.243	259.88
2257.175	253.88
2261.104	257.88
2265.029	256.88
2268.95	253.88
2272.868	256.88
2276.783	240.88
2280.694	238.88
2284.601	231.88
2288.505	244.88
2292.405	230.88
2296.302	234.88
2300.195	226.88
2304.085	235.88
2307.971	230.88
2311.854	218.88
2315.734	220.88
2319.609	218.88
2323.482	223.88
2327.351	230.88
2331.216	251.88
2335.078	257.88
2338.937	237.88
2342.792	216.88
2346.643	213.88
2350.492	209.88
2354.336	209.88
2358.178	204.88
2362.015	211.88
2365.85	209.88
2369.681	217.88
2373.508	215.88
2377.333	215.88
2381.153	210.88
2384.971	209.88
2388.785	211.88
2392.595	204.88
2396.402	200.88
2400.206	200.88
2404.007	202.88
2407.804	192.88
2411.597	204.88
2415.388	199.88
2419.174	198.88
2422.958	194.88
2426.738	190.88
2430.515	189.88
2434.289	193.88
2438.059	190.88
2441.825	184.88
2445.589	189.88
2449.349	175.88
2453.106	184.88
2456.859	181.88
2460.61	174.88
2464.356	177.88
2468.1	169.88
2471.84	176.88
2475.577	175.88
2479.311	170.88
2483.041	163.88
2486.768	164.88
2490.492	160.88
2494.213	169.88
2497.93	172.88
2501.644	164.88
2505.355	168.88
2509.062	169.88
2512.766	165.88
2516.467	152.88
2520.165	162.88
2523.859	161.88
2527.551	162.88
2531.239	166.88
2534.923	153.88
2538.605	164.88
2542.283	150.88
2545.958	154.88
2549.63	156.88
2553.299	155.88
2556.964	164.88
2560.626	160.88
2564.285	157.88
2567.941	161.88
2571.594	161.88
2575.243	147.88
2578.89	152.88
2582.533	150.88
2586.173	149.88
2589.809	143.88
2593.443	154.88
2597.073	145.88
2600.701	150.88
2604.325	142.88
2607.946	147.88
2611.564	142.88
2615.178	135.88
2618.79	136.88
2622.398	129.88
2626.004	129.88
2629.606	134.88
2633.205	138.88
2636.801	129.88
2640.394	128.88
2643.983	119.88
2647.57	120.88
2651.153	117.88
2654.734	116.88
2658.311	114.88
2661.885	109.88
2665.456	110.88
2669.025	104.88
2672.589	113.88
2676.151	104.88
2679.71	103.88
2683.266	101.88
2686.819	97.88
2690.368	95.88
2693.915	92.88
2697.458	82.88
2700.999	91.88
2704.536	88.88
2708.071	80.88
2711.602	80.88
2715.13	79.88
2718.656	78.88
2722.178	78.88
2725.697	65.88
2729.214	73.88
2732.727	78.88
2736.237	74.88
2739.744	67.88
2743.249	73.88
2746.75	76.88
2750.248	69.88
2753.743	73.88
2757.236	78.88
2760.725	80.88
2764.211	65.88
2767.695	76.88
2771.175	74.88
2774.652	69.88
2778.127	69.88
2781.598	65.88
2785.067	64.88
2788.532	77.88
2791.995	65.88
2795.455	63.88
2798.911	70.88
2802.365	66.88
2805.816	62.88
2809.264	60.88
2812.709	63.88
2816.151	59.88
2819.59	67.88
2823.026	66.88
2826.46	55.88
2829.89	56.88
2833.318	58.88
2836.742	62.88
2840.164	58.88
2843.583	59.88
2846.999	61.88
2850.412	57.88
2853.822	55.88
2857.229	58.88
2860.634	58.88
2864.035	56.88
2867.434	61.88
2870.83	53.88
2874.223	51.88
2877.613	45.88
2881	42.88
2884.385	42.88
2887.766	44.88
2891.145	40.88
2894.521	44.88
2897.894	34.88
2901.264	35.88
2904.631	34.88
2907.996	30.88
2911.358	32.88
2914.717	33.88
2918.073	30.88
2921.426	31.88
2924.777	31.88
2928.124	29.88
2931.469	30.88
2934.811	29.88
2938.15	18.88
2941.487	25.88
2944.821	24.88
2948.152	11.88
2951.48	23.88
2954.805	14.88
2958.128	17.88
2961.447	16.88
2964.765	15.88
2968.079	19.88
2971.39	15.88
2974.699	15.88
2978.005	13.88
2981.308	6.88
2984.609	3.88
2987.907	13.88
2991.202	7.88
2994.494	13.88
2997.784	17.88
3001.07	12.88
3004.355	8.88
3007.636	7.88
3010.915	4.88
3014.191	13.88
3017.464	7.88
3020.734	5.88
3024.002	-2.12
3027.267	-1.12
3030.53	-2.12
3033.789	3.88
3037.046	-3.12
3040.301	4.88
3043.552	-9.12
3046.801	-6.12
3050.048	-3.12
3053.291	-8.12
3056.532	-7.12
3059.771	-4.12
3063.006	-9.12
3066.239	-9.12
3069.469	-4.12
3072.697	-15.12
3075.922	-16.12
3079.144	-11.12
3082.364	-7.12
3085.581	-15.12
3088.795	-17.12
3092.007	-25.12
3095.216	-19.12
3098.423	-16.12
3101.627	-17.12
3104.828	-12.12
3108.026	-18.12
3111.222	-21.12
3114.416	-14.12
3117.607	-20.12
3120.795	-15.12
3123.98	-18.12
3127.163	-20.12
3130.344	-23.12
3133.521	-23.12
3136.696	-20.12
3139.869	-19.12
3143.039	-21.12
3146.206	-24.12
3149.371	-25.12
3152.533	-26.12
3155.693	-26.12
3158.85	-24.12
3162.005	-29.12
3165.157	-29.12
3168.306	-26.12
3171.453	-32.12
3174.597	-30.12
3177.739	-27.12
3180.878	-39.12
3184.014	-35.12
3187.149	-32.12
3190.28	-33.12
3193.409	-33.12
3196.536	-42.12
3199.659	-35.12
3202.781	-37.12
3205.9	-41.12
3209.016	-48.12
3212.13	-43.12
3215.241	-41.12
3218.35	-43.12
3221.456	-43.12
3224.56	-41.12
3227.661	-45.12
3230.76	-42.12
3233.856	-48.12
3236.95	-45.12
3240.041	-43.12
3243.13	-49.12
3246.216	-39.12
3249.3	-46.12
3252.382	-43.12
3255.46	-42.12
3258.537	-15.12
3261.611	-46.12
3264.682	-43.12
3267.751	-36.12
3270.818	-47.12
3273.882	-44.12
3276.943	-43.12
3280.002	-47.12
3283.059	-48.12
3286.113	-47.12
3289.165	-44.12
3292.214	-45.12
3295.261	-43.12
3298.306	-47.12
3301.348	-48.12
3304.387	-43.12
3307.425	-48.12
3310.459	-50.12
3313.492	-51.12
3316.521	-52.12
3319.549	-55.12
3322.574	-56.12
3325.597	-55.12
3328.617	-50.12
3331.635	-51.12
3334.65	-52.12
3337.663	-54.12
3340.674	-51.12
3343.682	-54.12
3346.688	-54.12
3349.691	-55.12
3352.692	-52.12
3355.691	-60.12
3358.687	-54.12
3361.681	-51.12
3364.673	-53.12
3367.662	-54.12
3370.649	-55.12
3373.633	-51.12
3376.615	-57.12
3379.595	-54.12
3382.572	-56.12
3385.547	-57.12
3388.52	-47.12
3391.49	-56.12
3394.458	-53.12
3397.424	-51.12
3400.387	-56.12
3403.348	-58.12
3406.307	-50.12
3409.263	-56.12
3412.217	-60.12
3415.168	-54.12
3418.118	-53.12
3421.065	-57.12
3424.009	-56.12
3426.951	-53.12
3429.891	-57.12
3432.829	-55.12
3435.764	-62.12
3438.697	-54.12
3441.628	-57.12
3444.557	-58.12
3447.483	-65.12
3450.407	-66.12
3453.328	-54.12
3456.247	-61.12
3459.164	-61.12
3462.079	-56.12
3464.991	-65.12
3467.902	-63.12
3470.809	-68.12
3473.715	-60.12
3476.618	-65.12
3479.519	-62.12
3482.418	-65.12
3485.315	-70.12
3488.209	-65.12
3491.101	-64.12
3493.99	-61.12
3496.878	-69.12
3499.763	-67.12
3502.646	-66.12
3505.527	-70.12
3508.405	-69.12
3511.281	-72.12
3514.155	-60.12
3517.027	-68.12
3519.897	-65.12
3522.764	-63.12
3525.629	-74.12
3528.492	-62.12
3531.352	-66.12
3534.211	-66.12
3537.067	-68.12
3539.921	-67.12
3542.773	-74.12
3545.622	-64.12
3548.469	-69.12
3551.315	-68.12
3554.157	-67.12
3556.998	-66.12
3559.837	-62.12
3562.673	-63.12
3565.507	-64.12
3568.339	-68.12
3571.169	-69.12
3573.996	-69.12
3576.822	-67.12
3579.645	-70.12
3582.466	-68.12
3585.285	-70.12
3588.101	-74.12
3590.916	-71.12
3593.728	-66.12
3596.538	-79.12
3599.346	-76.12
3602.152	-71.12
3604.956	-70.12
3607.757	-73.12
3610.556	-72.12
3613.354	-70.12
3616.149	-77.12
3618.942	-73.12
3621.732	-77.12
3624.521	-69.12
3627.307	-70.12
3630.092	-66.12
3632.874	-69.12
3635.654	-72.12
3638.432	-71.12
3641.208	-74.12
3643.982	-66.12
3646.753	-73.12
3649.523	-73.12
3652.29	-70.12
3655.055	-77.12
3657.818	-74.12
3660.579	-69.12
3663.338	-70.12
3666.095	-72.12
3668.849	-74.12
3671.602	-66.12
3674.352	-72.12
3677.101	-69.12
3679.847	-73.12
3682.591	-64.12
3685.333	-73.12
3688.073	-73.12
3690.811	-69.12
3693.547	-70.12
3696.281	-72.12
3699.013	-73.12
3701.742	-72.12
3704.47	-75.12
3707.195	-70.12
3709.919	-68.12
3712.64	-78.12
3715.359	-78.12
3718.076	-66.12
3720.792	-73.12
3723.505	-63.12
3726.216	-77.12
3728.925	-75.12
3731.632	-70.12
3734.336	-74.12
3737.039	-73.12
3739.74	-70.12
3742.439	-70.12
3745.136	-76.12
3747.83	-77.12
3750.523	-72.12
3753.213	-96.12
3755.902	-75.12
3758.589	-79.12
3761.273	-85.12
3763.956	-77.12
3766.636	-77.12
3769.315	-75.12
3771.991	-79.12
3774.665	-71.12
3777.338	-77.12
3780.008	-81.12
3782.677	-76.12
3785.343	-86.12
3788.007	-79.12
3790.67	-70.12
3793.33	-77.12
3795.989	-71.12
3798.645	-81.12
3801.299	-76.12
3803.952	-78.12
3806.602	-80.12
3809.251	-79.12
3811.897	-75.12
3814.542	-77.12
3817.184	-74.12
3819.825	-79.12
3822.463	-80.12
3825.1	-82.12
3827.735	-77.12
3830.367	-82.12
3832.998	-72.12
3835.627	-71.12
3838.253	-75.12
3840.878	-78.12
3843.501	-75.12
3846.122	-78.12
3848.741	-75.12
3851.358	-71.12
3853.973	-73.12
3856.586	-82.12
3859.197	-71.12
3861.806	-75.12
3864.414	-77.12
3867.019	-68.12
3869.622	-66.12
3872.224	-57.12
3874.823	-41.12
3877.421	-25.12
3880.016	10.88
3882.61	35.88
3885.202	49.88
3887.792	25.88
3890.38	-14.12
3892.966	-45.12
3895.55	-60.12
3898.132	-72.12
3900.713	-71.12
3903.291	-76.12
3905.868	-73.12
3908.442	-78.12
3911.015	-75.12
3913.586	-74.12
3916.155	-76.12
3918.722	-71.12
3921.287	-74.12
3923.85	-75.12
3926.411	-78.12
3928.971	-76.12
3931.528	-75.12
3934.084	-80.12
3936.638	-81.12
3939.19	-77.12
3941.74	-74.12
3944.288	-81.12
3946.834	-73.12
3949.378	-73.12
3951.921	-71.12
3954.462	-77.12
3957	-75.12
3959.537	-67.12
3962.072	-70.12
3964.606	-76.12
3967.137	-73.12
3969.667	-72.12
3972.194	-75.12
3974.72	-77.12
3977.244	-77.12
3979.766	-78.12
3982.286	-76.12
3984.805	-76.12
3987.321	-75.12
3989.836	-73.12
3992.349	-72.12
3994.86	-79.12
3997.369	-77.12
3999.877	-76.12
4002.382	-72.12
4004.886	-74.12
4007.388	-75.12
4009.888	-73.12
4012.386	-76.12
4014.883	-77.12
4017.377	-77.12
4019.87	-73.12
4022.361	-76.12
4024.85	-79.12
4027.338	-70.12
4029.823	-77.12
4032.307	-78.12
4034.789	-81.12
4037.269	-79.12
4039.747	-76.12
4042.224	-74.12
4044.699	-77.12
4047.172	-75.12
4049.643	-74.12
4052.112	-73.12
4054.58	-81.12
4057.046	-77.12
4059.51	-78.12
4061.972	-76.12
4064.432	-76.12
4066.891	-76.12
4069.348	-75.12
4071.803	-73.12
4074.256	-71.12
4076.708	-76.12
4079.158	-77.12
4081.606	-70.12
4084.052	-79.12
4086.497	-79.12
4088.939	-82.12
4091.38	-80.12
4093.819	-78.12
4096.257	-75.12
4098.693	-79.12
4101.127	-78.12
4103.559	-80.12
4105.989	35.88
4108.418	39.88
4110.845	29.88
4113.27	25.88
4115.694	19.88
4118.115	31.88
4120.535	-76.12
4122.954	-76.12
4125.37	-78.12
4127.785	-78.12
4130.198	-76.12
4132.609	-72.12
4135.019	-77.12
4137.427	-80.12
4139.833	-77.12
4142.237	-81.12