File: Data/Raman/2017-08-29 - Alluminum 2/Aug 29 2017 - Aluminum 2/EC 110 3_RamanShift_1.txt
Data from EC 110 3_RamanShift_1.txt Node

Date: Tue Aug 29 12:33:07 IDT 2017
User: aro
Spectrometer: QEPB0276
Trigger mode: 0
Integration Time (sec): 3.000000E1
Scans to average: 1
Electric dark correction enabled: true
Nonlinearity correction enabled: false
Boxcar width: 0
XAxis mode: Raman Shifts
Number of Pixels in Spectrum: 1044
>>>>>Begin Spectral Data<<<<<
160.701	25.62
166.742	42.62
172.777	72.62
178.805	199.62
184.826	478.62
190.841	968.62
196.849	1535.62
202.85	1932.62
208.845	2068.62
214.833	2102.62
220.815	2110.62
226.789	2154.62
232.758	2195.62
238.719	2231.62
244.674	2289.62
250.623	2332.62
256.565	2330.62
262.5	2355.62
268.429	2396.62
274.351	2442.62
280.267	2454.62
286.176	2496.62
292.079	2536.62
297.975	2604.62
303.865	2615.62
309.748	2649.62
315.625	2697.62
321.495	2687.62
327.359	2750.62
333.217	2763.62
339.068	2781.62
344.912	2813.62
350.751	2797.62
356.583	2865.62
362.408	2895.62
368.227	2937.62
374.04	3075.62
379.847	3273.62
385.647	3376.62
391.44	3254.62
397.228	3124.62
403.009	3157.62
408.784	3443.62
414.553	4026.62
420.315	4712.62
426.071	4718.62
431.821	4009.62
437.565	3410.62
443.302	3199.62
449.033	3095.62
454.758	3032.62
460.477	2994.62
466.189	2935.62
471.896	2860.62
477.596	2833.62
483.29	2834.62
488.978	2806.62
494.66	2761.62
500.335	2639.62
506.005	2443.62
511.668	2192.62
517.325	2005.62
522.977	1837.62
528.622	1722.62
534.261	1628.62
539.894	1561.62
545.521	1523.62
551.141	1501.62
556.756	1473.62
562.365	1457.62
567.968	1436.62
573.565	1439.62
579.155	1445.62
584.74	1454.62
590.319	1422.62
595.892	1417.62
601.459	1415.62
607.02	1422.62
612.575	1395.62
618.124	1368.62
623.667	1348.62
629.204	1352.62
634.735	1397.62
640.261	1548.62
645.781	1765.62
651.294	1859.62
656.802	1699.62
662.304	1424.62
667.8	1267.62
673.29	1226.62
678.775	1202.62
684.254	1182.62
689.726	1190.62
695.193	1179.62
700.655	1158.62
706.11	1149.62
711.56	1166.62
717.004	1148.62
722.442	1132.62
727.874	1163.62
733.301	1156.62
738.722	1179.62
744.137	1195.62
749.547	1285.62
754.951	1313.62
760.349	1292.62
765.741	1251.62
771.128	1235.62
776.509	1262.62
781.885	1291.62
787.254	1336.62
792.618	1334.62
797.977	1347.62
803.33	1325.62
808.677	1329.62
814.019	1301.62
819.355	1276.62
824.686	1273.62
830.011	1237.62
835.33	1233.62
840.644	1205.62
845.952	1197.62
851.255	1165.62
856.552	1138.62
861.844	1094.62
867.13	1085.62
872.41	1060.62
877.686	1055.62
882.955	1052.62
888.219	1024.62
893.478	1011.62
898.731	1006.62
903.979	1000.62
909.221	981.62
914.458	972.62
919.69	986.62
924.916	986.62
930.136	1002.62
935.351	989.62
940.561	992.62
945.766	992.62
950.965	984.62
956.158	989.62
961.347	962.62
966.529	959.62
971.707	959.62
976.879	947.62
982.046	947.62
987.208	914.62
992.364	930.62
997.515	949.62
1002.66	953.62
1007.801	958.62
1012.936	971.62
1018.066	974.62
1023.19	997.62
1028.309	992.62
1033.423	1004.62
1038.532	1003.62
1043.636	1012.62
1048.734	1005.62
1053.827	994.62
1058.915	1003.62
1063.998	1004.62
1069.075	998.62
1074.147	997.62
1079.214	996.62
1084.276	984.62
1089.333	980.62
1094.385	980.62
1099.431	969.62
1104.472	952.62
1109.509	937.62
1114.54	934.62
1119.565	917.62
1124.586	908.62
1129.602	888.62
1134.613	882.62
1139.618	893.62
1144.619	894.62
1149.614	896.62
1154.604	906.62
1159.589	921.62
1164.57	922.62
1169.545	916.62
1174.515	924.62
1179.48	920.62
1184.44	900.62
1189.395	891.62
1194.345	911.62
1199.29	909.62
1204.23	912.62
1209.165	908.62
1214.095	908.62
1219.021	914.62
1223.941	907.62
1228.856	934.62
1233.766	922.62
1238.672	896.62
1243.572	905.62
1248.467	900.62
1253.358	891.62
1258.244	868.62
1263.124	838.62
1268	836.62
1272.871	800.62
1277.737	802.62
1282.599	808.62
1287.455	799.62
1292.306	809.62
1297.153	820.62
1301.995	821.62
1306.832	827.62
1311.664	833.62
1316.491	815.62
1321.314	812.62
1326.132	815.62
1330.945	795.62
1335.753	789.62
1340.556	783.62
1345.354	775.62
1350.148	765.62
1354.937	769.62
1359.722	760.62
1364.501	756.62
1369.276	753.62
1374.046	752.62
1378.811	751.62
1383.572	747.62
1388.327	755.62
1393.079	754.62
1397.825	739.62
1402.567	736.62
1407.304	710.62
1412.036	714.62
1416.764	710.62
1421.487	697.62
1426.205	701.62
1430.919	706.62
1435.628	698.62
1440.333	718.62
1445.032	726.62
1449.727	723.62
1454.418	721.62
1459.104	731.62
1463.785	702.62
1468.462	718.62
1473.134	705.62
1477.802	693.62
1482.465	705.62
1487.123	702.62
1491.777	705.62
1496.426	715.62
1501.071	707.62
1505.711	734.62
1510.347	744.62
1514.978	741.62
1519.604	743.62
1524.226	745.62
1528.844	729.62
1533.457	734.62
1538.065	707.62
1542.669	698.62
1547.269	697.62
1551.864	692.62
1556.454	704.62
1561.041	703.62
1565.622	691.62
1570.199	663.62
1574.772	659.62
1579.34	661.62
1583.904	656.62
1588.464	646.62
1593.019	648.62
1597.569	653.62
1602.115	634.62
1606.657	623.62
1611.195	624.62
1615.728	614.62
1620.256	615.62
1624.78	611.62
1629.3	600.62
1633.816	612.62
1638.327	594.62
1642.834	612.62
1647.336	617.62
1651.834	634.62
1656.328	628.62
1660.817	639.62
1665.302	624.62
1669.783	626.62
1674.259	623.62
1678.732	620.62
1683.199	614.62
1687.663	617.62
1692.122	607.62
1696.577	609.62
1701.028	606.62
1705.474	607.62
1709.917	601.62
1714.355	607.62
1718.788	596.62
1723.218	582.62
1727.643	593.62
1732.064	574.62
1736.481	568.62
1740.893	556.62
1745.301	546.62
1749.705	537.62
1754.105	521.62
1758.501	513.62
1762.893	507.62
1767.28	495.62
1771.663	501.62
1776.042	491.62
1780.417	494.62
1784.787	491.62
1789.154	499.62
1793.516	493.62
1797.874	522.62
1802.228	505.62
1806.578	525.62
1810.924	516.62
1815.266	500.62
1819.603	495.62
1823.937	474.62
1828.266	470.62
1832.591	472.62
1836.913	460.62
1841.23	459.62
1845.543	451.62
1849.852	460.62
1854.156	454.62
1858.457	440.62
1862.754	460.62
1867.047	464.62
1871.335	452.62
1875.62	458.62
1879.9	462.62
1884.177	464.62
1888.449	467.62
1892.718	465.62
1896.982	462.62
1901.243	451.62
1905.499	454.62
1909.752	457.62
1914	447.62
1918.245	464.62
1922.485	460.62
1926.722	470.62
1930.954	471.62
1935.183	478.62
1939.408	485.62
1943.628	488.62
1947.845	462.62
1952.058	461.62
1956.267	461.62
1960.472	448.62
1964.673	441.62
1968.87	424.62
1973.063	421.62
1977.252	412.62
1981.438	402.62
1985.619	402.62
1989.797	382.62
1993.971	381.62
1998.14	386.62
2002.306	391.62
2006.469	370.62
2010.627	379.62
2014.781	371.62
2018.932	375.62
2023.078	362.62
2027.221	379.62
2031.36	361.62
2035.495	356.62
2039.627	351.62
2043.754	343.62
2047.878	348.62
2051.998	345.62
2056.114	346.62
2060.226	349.62
2064.334	357.62
2068.439	352.62
2072.54	357.62
2076.637	354.62
2080.73	367.62
2084.82	372.62
2088.906	369.62
2092.988	374.62
2097.066	368.62
2101.14	363.62
2105.211	356.62
2109.278	354.62
2113.342	346.62
2117.401	349.62
2121.457	337.62
2125.509	333.62
2129.558	334.62
2133.602	332.62
2137.643	323.62
2141.681	316.62
2145.714	321.62
2149.744	312.62
2153.77	315.62
2157.793	318.62
2161.812	305.62
2165.827	302.62
2169.838	297.62
2173.846	307.62
2177.851	298.62
2181.851	292.62
2185.848	288.62
2189.841	282.62
2193.831	278.62
2197.817	267.62
2201.799	273.62
2205.778	275.62
2209.753	270.62
2213.725	274.62
2217.693	275.62
2221.657	277.62
2225.618	279.62
2229.575	277.62
2233.529	275.62
2237.479	277.62
2241.425	268.62
2245.368	275.62
2249.307	263.62
2253.243	263.62
2257.175	253.62
2261.104	253.62
2265.029	248.62
2268.95	236.62
2272.868	243.62
2276.783	232.62
2280.694	238.62
2284.601	232.62
2288.505	237.62
2292.405	232.62
2296.302	230.62
2300.195	217.62
2304.085	222.62
2307.971	217.62
2311.854	212.62
2315.734	214.62
2319.609	211.62
2323.482	206.62
2327.351	217.62
2331.216	247.62
2335.078	242.62
2338.937	224.62
2342.792	206.62
2346.643	193.62
2350.492	202.62
2354.336	205.62
2358.178	201.62
2362.015	195.62
2365.85	200.62
2369.681	200.62
2373.508	203.62
2377.333	203.62
2381.153	197.62
2384.971	202.62
2388.785	199.62
2392.595	203.62
2396.402	203.62
2400.206	194.62
2404.007	194.62
2407.804	190.62
2411.597	196.62
2415.388	187.62
2419.174	192.62
2422.958	187.62
2426.738	190.62
2430.515	184.62
2434.289	182.62
2438.059	177.62
2441.825	173.62
2445.589	173.62
2449.349	170.62
2453.106	179.62
2456.859	177.62
2460.61	166.62
2464.356	160.62
2468.1	167.62
2471.84	167.62
2475.577	167.62
2479.311	164.62
2483.041	165.62
2486.768	157.62
2490.492	153.62
2494.213	167.62
2497.93	168.62
2501.644	171.62
2505.355	153.62
2509.062	160.62
2512.766	161.62
2516.467	158.62
2520.165	150.62
2523.859	160.62
2527.551	154.62
2531.239	156.62
2534.923	154.62
2538.605	157.62
2542.283	147.62
2545.958	162.62
2549.63	154.62
2553.299	155.62
2556.964	147.62
2560.626	153.62
2564.285	146.62
2567.941	152.62
2571.594	145.62
2575.243	141.62
2578.89	149.62
2582.533	149.62
2586.173	148.62
2589.809	142.62
2593.443	140.62
2597.073	139.62
2600.701	145.62
2604.325	135.62
2607.946	139.62
2611.564	140.62
2615.178	135.62
2618.79	125.62
2622.398	126.62
2626.004	121.62
2629.606	123.62
2633.205	114.62
2636.801	120.62
2640.394	121.62
2643.983	112.62
2647.57	104.62
2651.153	103.62
2654.734	113.62
2658.311	108.62
2661.885	102.62
2665.456	103.62
2669.025	98.62
2672.589	94.62
2676.151	97.62
2679.71	95.62
2683.266	92.62
2686.819	93.62
2690.368	86.62
2693.915	83.62
2697.458	81.62
2700.999	81.62
2704.536	79.62
2708.071	70.62
2711.602	76.62
2715.13	70.62
2718.656	74.62
2722.178	75.62
2725.697	65.62
2729.214	70.62
2732.727	69.62
2736.237	72.62
2739.744	72.62
2743.249	79.62
2746.75	66.62
2750.248	63.62
2753.743	66.62
2757.236	112.62
2760.725	205.62
2764.211	346.62
2767.695	458.62
2771.175	253.62
2774.652	135.62
2778.127	84.62
2781.598	61.62
2785.067	55.62
2788.532	66.62
2791.995	63.62
2795.455	61.62
2798.911	58.62
2802.365	54.62
2805.816	63.62
2809.264	51.62
2812.709	51.62
2816.151	53.62
2819.59	68.62
2823.026	55.62
2826.46	51.62
2829.89	55.62
2833.318	47.62
2836.742	56.62
2840.164	52.62
2843.583	47.62
2846.999	58.62
2850.412	46.62
2853.822	45.62
2857.229	51.62
2860.634	47.62
2864.035	41.62
2867.434	49.62
2870.83	41.62
2874.223	41.62
2877.613	39.62
2881	33.62
2884.385	32.62
2887.766	39.62
2891.145	42.62
2894.521	33.62
2897.894	27.62
2901.264	31.62
2904.631	22.62
2907.996	20.62
2911.358	29.62
2914.717	25.62
2918.073	23.62
2921.426	20.62
2924.777	23.62
2928.124	25.62
2931.469	20.62
2934.811	17.62
2938.15	12.62
2941.487	13.62
2944.821	12.62
2948.152	1.62
2951.48	17.62
2954.805	12.62
2958.128	9.62
2961.447	11.62
2964.765	6.62
2968.079	5.62
2971.39	9.62
2974.699	7.62
2978.005	6.62
2981.308	9.62
2984.609	2.62
2987.907	10.62
2991.202	-0.38
2994.494	9.62
2997.784	7.62
3001.07	5.62
3004.355	-0.38
3007.636	6.62
3010.915	5.62
3014.191	-1.38
3017.464	2.62
3020.734	10.62
3024.002	-2.38
3027.267	-1.38
3030.53	-4.38
3033.789	-6.38
3037.046	-10.38
3040.301	-7.38
3043.552	-13.38
3046.801	-13.38
3050.048	-16.38
3053.291	-13.38
3056.532	-18.38
3059.771	-8.38
3063.006	-25.38
3066.239	-18.38
3069.469	-14.38
3072.697	-21.38
3075.922	-21.38
3079.144	-17.38
3082.364	-18.38
3085.581	-16.38
3088.795	-21.38
3092.007	-26.38
3095.216	-18.38
3098.423	-21.38
3101.627	-27.38
3104.828	-19.38
3108.026	-23.38
3111.222	-22.38
3114.416	-21.38
3117.607	-22.38
3120.795	-23.38
3123.98	-29.38
3127.163	-22.38
3130.344	-26.38
3133.521	-27.38
3136.696	-20.38
3139.869	-25.38
3143.039	-26.38
3146.206	-29.38
3149.371	-30.38
3152.533	-25.38
3155.693	-34.38
3158.85	-31.38
3162.005	-30.38
3165.157	-32.38
3168.306	-22.38
3171.453	-30.38
3174.597	-31.38
3177.739	-36.38
3180.878	-45.38
3184.014	-43.38
3187.149	-34.38
3190.28	-39.38
3193.409	-40.38
3196.536	-45.38
3199.659	-37.38
3202.781	-44.38
3205.9	-43.38
3209.016	-48.38
3212.13	-41.38
3215.241	-43.38
3218.35	-44.38
3221.456	-43.38
3224.56	-43.38
3227.661	-49.38
3230.76	-42.38
3233.856	-52.38
3236.95	-48.38
3240.041	-43.38
3243.13	-52.38
3246.216	-42.38
3249.3	-46.38
3252.382	-48.38
3255.46	-43.38
3258.537	-17.38
3261.611	-51.38
3264.682	-48.38
3267.751	-44.38
3270.818	-55.38
3273.882	-51.38
3276.943	-52.38
3280.002	-45.38
3283.059	-54.38
3286.113	-51.38
3289.165	-50.38
3292.214	-57.38
3295.261	-48.38
3298.306	-52.38
3301.348	-53.38
3304.387	-59.38
3307.425	-58.38
3310.459	-57.38
3313.492	-59.38
3316.521	-61.38
3319.549	-59.38
3322.574	-65.38
3325.597	-62.38
3328.617	-58.38
3331.635	-66.38
3334.65	-60.38
3337.663	-67.38
3340.674	-57.38
3343.682	-56.38
3346.688	-63.38
3349.691	-63.38
3352.692	-64.38
3355.691	-56.38
3358.687	-61.38
3361.681	-56.38
3364.673	-62.38
3367.662	-62.38
3370.649	-66.38
3373.633	-57.38
3376.615	-62.38
3379.595	-68.38
3382.572	-57.38
3385.547	-63.38
3388.52	-58.38
3391.49	-62.38
3394.458	-65.38
3397.424	-60.38
3400.387	-63.38
3403.348	-62.38
3406.307	-61.38
3409.263	-66.38
3412.217	-62.38
3415.168	-59.38
3418.118	-58.38
3421.065	-62.38
3424.009	-61.38
3426.951	-64.38
3429.891	-64.38
3432.829	-58.38
3435.764	-66.38
3438.697	-66.38
3441.628	-64.38
3444.557	-61.38
3447.483	-65.38
3450.407	-71.38
3453.328	-61.38
3456.247	-71.38
3459.164	-66.38
3462.079	-70.38
3464.991	-65.38
3467.902	-71.38
3470.809	-75.38
3473.715	-74.38
3476.618	-66.38
3479.519	-64.38
3482.418	-73.38
3485.315	-70.38
3488.209	-76.38
3491.101	-65.38
3493.99	-71.38
3496.878	-69.38
3499.763	-75.38
3502.646	-66.38
3505.527	-75.38
3508.405	-75.38
3511.281	-80.38
3514.155	-66.38
3517.027	-70.38
3519.897	-71.38
3522.764	-69.38
3525.629	-74.38
3528.492	-68.38
3531.352	-75.38
3534.211	-74.38
3537.067	-73.38
3539.921	-73.38
3542.773	-75.38
3545.622	-70.38
3548.469	-70.38
3551.315	-65.38
3554.157	-68.38
3556.998	-76.38
3559.837	-68.38
3562.673	-72.38
3565.507	-74.38
3568.339	-68.38
3571.169	-75.38
3573.996	-76.38
3576.822	-69.38
3579.645	-71.38
3582.466	-74.38
3585.285	-75.38
3588.101	-82.38
3590.916	-78.38
3593.728	-74.38
3596.538	-81.38
3599.346	-75.38
3602.152	-79.38
3604.956	-74.38
3607.757	-79.38
3610.556	-76.38
3613.354	-72.38
3616.149	-86.38
3618.942	-82.38
3621.732	-85.38
3624.521	-75.38
3627.307	-80.38
3630.092	-81.38
3632.874	-80.38
3635.654	-75.38
3638.432	-78.38
3641.208	-83.38
3643.982	-80.38
3646.753	-82.38
3649.523	-83.38
3652.29	-81.38
3655.055	-78.38
3657.818	-81.38
3660.579	-83.38
3663.338	-80.38
3666.095	-80.38
3668.849	-84.38
3671.602	-75.38
3674.352	-81.38
3677.101	-80.38
3679.847	-87.38
3682.591	-76.38
3685.333	-78.38
3688.073	-82.38
3690.811	-82.38
3693.547	-77.38
3696.281	-74.38
3699.013	-78.38
3701.742	-78.38
3704.47	-78.38
3707.195	-78.38
3709.919	-77.38
3712.64	-82.38
3715.359	-82.38
3718.076	-76.38
3720.792	-81.38
3723.505	-79.38
3726.216	-89.38
3728.925	-79.38
3731.632	-79.38
3734.336	-83.38
3737.039	-83.38
3739.74	-76.38
3742.439	-77.38
3745.136	-82.38
3747.83	-84.38
3750.523	-79.38
3753.213	-101.38
3755.902	-79.38
3758.589	-75.38
3761.273	-85.38
3763.956	-79.38
3766.636	-77.38
3769.315	-82.38
3771.991	-78.38
3774.665	-74.38
3777.338	-79.38
3780.008	-85.38
3782.677	-80.38
3785.343	-88.38
3788.007	-86.38
3790.67	-80.38
3793.33	-78.38
3795.989	-76.38
3798.645	-82.38
3801.299	-83.38
3803.952	-85.38
3806.602	-83.38
3809.251	-84.38
3811.897	-84.38
3814.542	-82.38
3817.184	-81.38
3819.825	-80.38
3822.463	-78.38
3825.1	-85.38
3827.735	-78.38
3830.367	-86.38
3832.998	-75.38
3835.627	-77.38
3838.253	-78.38
3840.878	-76.38
3843.501	-77.38
3846.122	-83.38
3848.741	-79.38
3851.358	-80.38
3853.973	-80.38
3856.586	-83.38
3859.197	-79.38
3861.806	-76.38
3864.414	-79.38
3867.019	-81.38
3869.622	-70.38
3872.224	-64.38
3874.823	-50.38
3877.421	-22.38
3880.016	15.62
3882.61	40.62
3885.202	51.62
3887.792	21.62
3890.38	-20.38
3892.966	-52.38
3895.55	-65.38
3898.132	-75.38
3900.713	-75.38
3903.291	-85.38
3905.868	-82.38
3908.442	-83.38
3911.015	-84.38
3913.586	-84.38
3916.155	-84.38
3918.722	-78.38
3921.287	-84.38
3923.85	-87.38
3926.411	-82.38
3928.971	-87.38
3931.528	-78.38
3934.084	-89.38
3936.638	-88.38
3939.19	-85.38
3941.74	-83.38
3944.288	-88.38
3946.834	-83.38
3949.378	-86.38
3951.921	-83.38
3954.462	-86.38
3957	-82.38
3959.537	-80.38
3962.072	-76.38
3964.606	-85.38
3967.137	-78.38
3969.667	-84.38
3972.194	-82.38
3974.72	-84.38
3977.244	-86.38
3979.766	-85.38
3982.286	-89.38
3984.805	-87.38
3987.321	-82.38
3989.836	-82.38
3992.349	-79.38
3994.86	-82.38
3997.369	-83.38
3999.877	-77.38
4002.382	-80.38
4004.886	-77.38
4007.388	-80.38
4009.888	-82.38
4012.386	-84.38
4014.883	-82.38
4017.377	-78.38
4019.87	-79.38
4022.361	-81.38
4024.85	-82.38
4027.338	-79.38
4029.823	-78.38
4032.307	-80.38
4034.789	-79.38
4037.269	-83.38
4039.747	-78.38
4042.224	-75.38
4044.699	-77.38
4047.172	-79.38
4049.643	-77.38
4052.112	-78.38
4054.58	-83.38
4057.046	-78.38
4059.51	-80.38
4061.972	-79.38
4064.432	-75.38
4066.891	-77.38
4069.348	-74.38
4071.803	-79.38
4074.256	-79.38
4076.708	-80.38
4079.158	-78.38
4081.606	-80.38
4084.052	-85.38
4086.497	-81.38
4088.939	-79.38
4091.38	-80.38
4093.819	-79.38
4096.257	-81.38
4098.693	-84.38
4101.127	-85.38
4103.559	-84.38
4105.989	39.62
4108.418	40.62
4110.845	29.62
4113.27	21.62
4115.694	31.62
4118.115	31.62
4120.535	-81.38
4122.954	-76.38
4125.37	-79.38
4127.785	-80.38
4130.198	-81.38
4132.609	-81.38
4135.019	-86.38
4137.427	-84.38
4139.833	-82.38
4142.237	-87.38