File: Data/Raman/2017-08-29 - Alluminum 2/Aug 29 2017 - Aluminum 2/EC 12 1_RamanShift_2.txt
Data from EC 12 1_RamanShift_2.txt Node

Date: Tue Aug 29 12:13:07 IDT 2017
User: aro
Spectrometer: QEPB0276
Trigger mode: 0
Integration Time (sec): 3.000000E1
Scans to average: 1
Electric dark correction enabled: true
Nonlinearity correction enabled: false
Boxcar width: 0
XAxis mode: Raman Shifts
Number of Pixels in Spectrum: 1044
>>>>>Begin Spectral Data<<<<<
160.701	30.5
166.742	48.5
172.777	87.5
178.805	248.5
184.826	613.5
190.841	1247.5
196.849	1969.5
202.85	2545.5
208.845	2777.5
214.833	2812.5
220.815	2830.5
226.789	2889.5
232.758	2979.5
238.719	3036.5
244.674	3093.5
250.623	3109.5
256.565	3173.5
262.5	3185.5
268.429	3238.5
274.351	3282.5
280.267	3339.5
286.176	3376.5
292.079	3406.5
297.975	3481.5
303.865	3487.5
309.748	3543.5
315.625	3557.5
321.495	3549.5
327.359	3581.5
333.217	3625.5
339.068	3627.5
344.912	3685.5
350.751	3700.5
356.583	3705.5
362.408	3741.5
368.227	3798.5
374.04	3908.5
379.847	4088.5
385.647	4198.5
391.44	4096.5
397.228	3962.5
403.009	3949.5
408.784	4203.5
414.553	4755.5
420.315	5347.5
426.071	5406.5
431.821	4778.5
437.565	4167.5
443.302	3989.5
449.033	3895.5
454.758	3862.5
460.477	3777.5
466.189	3760.5
471.896	3710.5
477.596	3646.5
483.29	3656.5
488.978	3642.5
494.66	3599.5
500.335	3449.5
506.005	3284.5
511.668	3037.5
517.325	2867.5
522.977	2707.5
528.622	2614.5
534.261	2517.5
539.894	2480.5
545.521	2418.5
551.141	2376.5
556.756	2371.5
562.365	2312.5
567.968	2342.5
573.565	2322.5
579.155	2344.5
584.74	2316.5
590.319	2297.5
595.892	2268.5
601.459	2292.5
607.02	2281.5
612.575	2272.5
618.124	2241.5
623.667	2191.5
629.204	2166.5
634.735	2240.5
640.261	2367.5
645.781	2560.5
651.294	2652.5
656.802	2507.5
662.304	2233.5
667.8	2141.5
673.29	2084.5
678.775	2061.5
684.254	2050.5
689.726	2042.5
695.193	2014.5
700.655	2005.5
706.11	1951.5
711.56	1966.5
717.004	1961.5
722.442	1956.5
727.874	1958.5
733.301	1974.5
738.722	1983.5
744.137	2011.5
749.547	2069.5
754.951	2088.5
760.349	2079.5
765.741	2045.5
771.128	2032.5
776.509	2044.5
781.885	2071.5
787.254	2102.5
792.618	2110.5
797.977	2114.5
803.33	2091.5
808.677	2063.5
814.019	2053.5
819.355	2045.5
824.686	2012.5
830.011	2001.5
835.33	1992.5
840.644	1951.5
845.952	1957.5
851.255	1915.5
856.552	1886.5
861.844	1871.5
867.13	1863.5
872.41	1835.5
877.686	1798.5
882.955	1772.5
888.219	1776.5
893.478	1756.5
898.731	1751.5
903.979	1712.5
909.221	1715.5
914.458	1710.5
919.69	1742.5
924.916	1728.5
930.136	1725.5
935.351	1711.5
940.561	1720.5
945.766	1718.5
950.965	1713.5
956.158	1727.5
961.347	1676.5
966.529	1681.5
971.707	1658.5
976.879	1627.5
982.046	1625.5
987.208	1604.5
992.364	1622.5
997.515	1622.5
1002.66	1638.5
1007.801	1653.5
1012.936	1678.5
1018.066	1665.5
1023.19	1695.5
1028.309	1697.5
1033.423	1704.5
1038.532	1683.5
1043.636	1702.5
1048.734	1685.5
1053.827	1669.5
1058.915	1641.5
1063.998	1629.5
1069.075	1654.5
1074.147	1623.5
1079.214	1641.5
1084.276	1632.5
1089.333	1638.5
1094.385	1630.5
1099.431	1646.5
1104.472	1623.5
1109.509	1609.5
1114.54	1585.5
1119.565	1541.5
1124.586	1520.5
1129.602	1500.5
1134.613	1512.5
1139.618	1497.5
1144.619	1490.5
1149.614	1505.5
1154.604	1510.5
1159.589	1517.5
1164.57	1518.5
1169.545	1518.5
1174.515	1544.5
1179.48	1513.5
1184.44	1514.5
1189.395	1503.5
1194.345	1502.5
1199.29	1478.5
1204.23	1488.5
1209.165	1492.5
1214.095	1489.5
1219.021	1502.5
1223.941	1517.5
1228.856	1503.5
1233.766	1515.5
1238.672	1486.5
1243.572	1502.5
1248.467	1481.5
1253.358	1460.5
1258.244	1442.5
1263.124	1396.5
1268	1374.5
1272.871	1363.5
1277.737	1352.5
1282.599	1339.5
1287.455	1338.5
1292.306	1350.5
1297.153	1361.5
1301.995	1366.5
1306.832	1368.5
1311.664	1364.5
1316.491	1358.5
1321.314	1340.5
1326.132	1336.5
1330.945	1298.5
1335.753	1287.5
1340.556	1264.5
1345.354	1236.5
1350.148	1232.5
1354.937	1216.5
1359.722	1215.5
1364.501	1230.5
1369.276	1210.5
1374.046	1214.5
1378.811	1229.5
1383.572	1223.5
1388.327	1230.5
1393.079	1232.5
1397.825	1212.5
1402.567	1185.5
1407.304	1158.5
1412.036	1141.5
1416.764	1144.5
1421.487	1152.5
1426.205	1135.5
1430.919	1146.5
1435.628	1161.5
1440.333	1171.5
1445.032	1160.5
1449.727	1165.5
1454.418	1153.5
1459.104	1153.5
1463.785	1120.5
1468.462	1115.5
1473.134	1112.5
1477.802	1085.5
1482.465	1081.5
1487.123	1084.5
1491.777	1073.5
1496.426	1093.5
1501.071	1094.5
1505.711	1111.5
1510.347	1113.5
1514.978	1136.5
1519.604	1146.5
1524.226	1132.5
1528.844	1128.5
1533.457	1129.5
1538.065	1109.5
1542.669	1100.5
1547.269	1069.5
1551.864	1072.5
1556.454	1077.5
1561.041	1076.5
1565.622	1053.5
1570.199	1022.5
1574.772	1034.5
1579.34	1032.5
1583.904	1039.5
1588.464	1030.5
1593.019	1022.5
1597.569	1013.5
1602.115	984.5
1606.657	970.5
1611.195	971.5
1615.728	955.5
1620.256	938.5
1624.78	937.5
1629.3	926.5
1633.816	935.5
1638.327	922.5
1642.834	937.5
1647.336	947.5
1651.834	951.5
1656.328	940.5
1660.817	956.5
1665.302	944.5
1669.783	940.5
1674.259	943.5
1678.732	919.5
1683.199	910.5
1687.663	899.5
1692.122	896.5
1696.577	887.5
1701.028	894.5
1705.474	893.5
1709.917	906.5
1714.355	906.5
1718.788	905.5
1723.218	899.5
1727.643	875.5
1732.064	855.5
1736.481	849.5
1740.893	829.5
1745.301	831.5
1749.705	801.5
1754.105	791.5
1758.501	764.5
1762.893	745.5
1767.28	738.5
1771.663	735.5
1776.042	712.5
1780.417	715.5
1784.787	714.5
1789.154	726.5
1793.516	725.5
1797.874	741.5
1802.228	746.5
1806.578	760.5
1810.924	746.5
1815.266	736.5
1819.603	720.5
1823.937	714.5
1828.266	699.5
1832.591	688.5
1836.913	687.5
1841.23	683.5
1845.543	675.5
1849.852	689.5
1854.156	669.5
1858.457	672.5
1862.754	675.5
1867.047	675.5
1871.335	685.5
1875.62	685.5
1879.9	677.5
1884.177	683.5
1888.449	676.5
1892.718	681.5
1896.982	665.5
1901.243	661.5
1905.499	650.5
1909.752	647.5
1914	655.5
1918.245	657.5
1922.485	667.5
1926.722	672.5
1930.954	678.5
1935.183	677.5
1939.408	681.5
1943.628	685.5
1947.845	680.5
1952.058	682.5
1956.267	655.5
1960.472	645.5
1964.673	624.5
1968.87	610.5
1973.063	611.5
1977.252	591.5
1981.438	582.5
1985.619	570.5
1989.797	562.5
1993.971	563.5
1998.14	556.5
2002.306	560.5
2006.469	556.5
2010.627	554.5
2014.781	546.5
2018.932	548.5
2023.078	528.5
2027.221	528.5
2031.36	519.5
2035.495	510.5
2039.627	505.5
2043.754	494.5
2047.878	494.5
2051.998	494.5
2056.114	493.5
2060.226	491.5
2064.334	504.5
2068.439	508.5
2072.54	516.5
2076.637	511.5
2080.73	500.5
2084.82	508.5
2088.906	514.5
2092.988	514.5
2097.066	507.5
2101.14	500.5
2105.211	501.5
2109.278	499.5
2113.342	503.5
2117.401	481.5
2121.457	478.5
2125.509	475.5
2129.558	469.5
2133.602	472.5
2137.643	462.5
2141.681	466.5
2145.714	454.5
2149.744	458.5
2153.77	451.5
2157.793	437.5
2161.812	438.5
2165.827	422.5
2169.838	423.5
2173.846	420.5
2177.851	406.5
2181.851	402.5
2185.848	405.5
2189.841	402.5
2193.831	396.5
2197.817	386.5
2201.799	394.5
2205.778	384.5
2209.753	375.5
2213.725	390.5
2217.693	389.5
2221.657	387.5
2225.618	384.5
2229.575	389.5
2233.529	385.5
2237.479	375.5
2241.425	378.5
2245.368	373.5
2249.307	357.5
2253.243	365.5
2257.175	363.5
2261.104	350.5
2265.029	337.5
2268.95	345.5
2272.868	341.5
2276.783	337.5
2280.694	334.5
2284.601	328.5
2288.505	336.5
2292.405	332.5
2296.302	321.5
2300.195	314.5
2304.085	322.5
2307.971	305.5
2311.854	313.5
2315.734	299.5
2319.609	303.5
2323.482	308.5
2327.351	314.5
2331.216	337.5
2335.078	329.5
2338.937	311.5
2342.792	287.5
2346.643	284.5
2350.492	283.5
2354.336	290.5
2358.178	283.5
2362.015	289.5
2365.85	283.5
2369.681	291.5
2373.508	287.5
2377.333	285.5
2381.153	283.5
2384.971	288.5
2388.785	286.5
2392.595	278.5
2396.402	286.5
2400.206	273.5
2404.007	283.5
2407.804	274.5
2411.597	277.5
2415.388	278.5
2419.174	271.5
2422.958	263.5
2426.738	270.5
2430.515	260.5
2434.289	268.5
2438.059	260.5
2441.825	262.5
2445.589	252.5
2449.349	253.5
2453.106	252.5
2456.859	249.5
2460.61	244.5
2464.356	232.5
2468.1	226.5
2471.84	237.5
2475.577	234.5
2479.311	228.5
2483.041	230.5
2486.768	237.5
2490.492	224.5
2494.213	226.5
2497.93	226.5
2501.644	230.5
2505.355	219.5
2509.062	226.5
2512.766	225.5
2516.467	216.5
2520.165	213.5
2523.859	219.5
2527.551	221.5
2531.239	219.5
2534.923	219.5
2538.605	213.5
2542.283	215.5
2545.958	223.5
2549.63	214.5
2553.299	219.5
2556.964	218.5
2560.626	205.5
2564.285	212.5
2567.941	209.5
2571.594	210.5
2575.243	200.5
2578.89	207.5
2582.533	199.5
2586.173	210.5
2589.809	193.5
2593.443	197.5
2597.073	195.5
2600.701	200.5
2604.325	194.5
2607.946	190.5
2611.564	184.5
2615.178	177.5
2618.79	175.5
2622.398	184.5
2626.004	165.5
2629.606	172.5
2633.205	169.5
2636.801	174.5
2640.394	161.5
2643.983	155.5
2647.57	160.5
2651.153	152.5
2654.734	145.5
2658.311	145.5
2661.885	139.5
2665.456	143.5
2669.025	134.5
2672.589	131.5
2676.151	136.5
2679.71	130.5
2683.266	130.5
2686.819	118.5
2690.368	129.5
2693.915	118.5
2697.458	119.5
2700.999	115.5
2704.536	108.5
2708.071	106.5
2711.602	101.5
2715.13	93.5
2718.656	98.5
2722.178	97.5
2725.697	87.5
2729.214	97.5
2732.727	98.5
2736.237	101.5
2739.744	93.5
2743.249	98.5
2746.75	94.5
2750.248	94.5
2753.743	84.5
2757.236	100.5
2760.725	94.5
2764.211	87.5
2767.695	97.5
2771.175	95.5
2774.652	90.5
2778.127	87.5
2781.598	79.5
2785.067	83.5
2788.532	92.5
2791.995	83.5
2795.455	80.5
2798.911	81.5
2802.365	73.5
2805.816	86.5
2809.264	81.5
2812.709	79.5
2816.151	75.5
2819.59	80.5
2823.026	79.5
2826.46	82.5
2829.89	77.5
2833.318	82.5
2836.742	82.5
2840.164	74.5
2843.583	72.5
2846.999	79.5
2850.412	72.5
2853.822	69.5
2857.229	74.5
2860.634	76.5
2864.035	67.5
2867.434	73.5
2870.83	69.5
2874.223	62.5
2877.613	58.5
2881	52.5
2884.385	58.5
2887.766	51.5
2891.145	51.5
2894.521	50.5
2897.894	43.5
2901.264	46.5
2904.631	40.5
2907.996	28.5
2911.358	35.5
2914.717	34.5
2918.073	32.5
2921.426	29.5
2924.777	23.5
2928.124	28.5
2931.469	27.5
2934.811	23.5
2938.15	21.5
2941.487	25.5
2944.821	21.5
2948.152	9.5
2951.48	18.5
2954.805	14.5
2958.128	12.5
2961.447	8.5
2964.765	7.5
2968.079	6.5
2971.39	8.5
2974.699	7.5
2978.005	8.5
2981.308	8.5
2984.609	3.5
2987.907	13.5
2991.202	11.5
2994.494	12.5
2997.784	12.5
3001.07	3.5
3004.355	8.5
3007.636	12.5
3010.915	3.5
3014.191	0.5
3017.464	0.5
3020.734	1.5
3024.002	-4.5
3027.267	-5.5
3030.53	-8.5
3033.789	-8.5
3037.046	-9.5
3040.301	-13.5
3043.552	-20.5
3046.801	-10.5
3050.048	-14.5
3053.291	-16.5
3056.532	-18.5
3059.771	-9.5
3063.006	-25.5
3066.239	-19.5
3069.469	-13.5
3072.697	-25.5
3075.922	-15.5
3079.144	-20.5
3082.364	-17.5
3085.581	-22.5
3088.795	-20.5
3092.007	-26.5
3095.216	-24.5
3098.423	-24.5
3101.627	-21.5
3104.828	-25.5
3108.026	-24.5
3111.222	-28.5
3114.416	-21.5
3117.607	-25.5
3120.795	-25.5
3123.98	-28.5
3127.163	-25.5
3130.344	-28.5
3133.521	-36.5
3136.696	-34.5
3139.869	-33.5
3143.039	-32.5
3146.206	-37.5
3149.371	-33.5
3152.533	-35.5
3155.693	-32.5
3158.85	-41.5
3162.005	-37.5
3165.157	-43.5
3168.306	-35.5
3171.453	-43.5
3174.597	-41.5
3177.739	-43.5
3180.878	-47.5
3184.014	-55.5
3187.149	-46.5
3190.28	-51.5
3193.409	-48.5
3196.536	-53.5
3199.659	-53.5
3202.781	-51.5
3205.9	-57.5
3209.016	-60.5
3212.13	-57.5
3215.241	-56.5
3218.35	-53.5
3221.456	-58.5
3224.56	-55.5
3227.661	-60.5
3230.76	-61.5
3233.856	-61.5
3236.95	-59.5
3240.041	-56.5
3243.13	-62.5
3246.216	-58.5
3249.3	-62.5
3252.382	-63.5
3255.46	-60.5
3258.537	-38.5
3261.611	-57.5
3264.682	-61.5
3267.751	-57.5
3270.818	-61.5
3273.882	-60.5
3276.943	-61.5
3280.002	-54.5
3283.059	-61.5
3286.113	-64.5
3289.165	-65.5
3292.214	-65.5
3295.261	-69.5
3298.306	-65.5
3301.348	-65.5
3304.387	-71.5
3307.425	-65.5
3310.459	-71.5
3313.492	-68.5
3316.521	-73.5
3319.549	-71.5
3322.574	-70.5
3325.597	-76.5
3328.617	-69.5
3331.635	-74.5
3334.65	-73.5
3337.663	-74.5
3340.674	-65.5
3343.682	-76.5
3346.688	-71.5
3349.691	-77.5
3352.692	-77.5
3355.691	-77.5
3358.687	-72.5
3361.681	-73.5
3364.673	-73.5
3367.662	-73.5
3370.649	-80.5
3373.633	-72.5
3376.615	-80.5
3379.595	-82.5
3382.572	-75.5
3385.547	-81.5
3388.52	-74.5
3391.49	-77.5
3394.458	-84.5
3397.424	-78.5
3400.387	-77.5
3403.348	-75.5
3406.307	-76.5
3409.263	-79.5
3412.217	-76.5
3415.168	-77.5
3418.118	-80.5
3421.065	-78.5
3424.009	-76.5
3426.951	-77.5
3429.891	-78.5
3432.829	-78.5
3435.764	-78.5
3438.697	-78.5
3441.628	-76.5
3444.557	-80.5
3447.483	-80.5
3450.407	-90.5
3453.328	-81.5
3456.247	-82.5
3459.164	-80.5
3462.079	-80.5
3464.991	-85.5
3467.902	-89.5
3470.809	-88.5
3473.715	-86.5
3476.618	-88.5
3479.519	-84.5
3482.418	-88.5
3485.315	-88.5
3488.209	-89.5
3491.101	-83.5
3493.99	-88.5
3496.878	-84.5
3499.763	-89.5
3502.646	-84.5
3505.527	-90.5
3508.405	-88.5
3511.281	-90.5
3514.155	-82.5
3517.027	-90.5
3519.897	-91.5
3522.764	-81.5
3525.629	-93.5
3528.492	-86.5
3531.352	-88.5
3534.211	-90.5
3537.067	-91.5
3539.921	-90.5
3542.773	-88.5
3545.622	-91.5
3548.469	-93.5
3551.315	-89.5
3554.157	-86.5
3556.998	-94.5
3559.837	-86.5
3562.673	-89.5
3565.507	-93.5
3568.339	-94.5
3571.169	-96.5
3573.996	-93.5
3576.822	-92.5
3579.645	-97.5
3582.466	-89.5
3585.285	-94.5
3588.101	-100.5
3590.916	-91.5
3593.728	-87.5
3596.538	-96.5
3599.346	-95.5
3602.152	-95.5
3604.956	-95.5
3607.757	-97.5
3610.556	-95.5
3613.354	-91.5
3616.149	-100.5
3618.942	-94.5
3621.732	-96.5
3624.521	-92.5
3627.307	-99.5
3630.092	-93.5
3632.874	-94.5
3635.654	-90.5
3638.432	-90.5
3641.208	-96.5
3643.982	-90.5
3646.753	-94.5
3649.523	-98.5
3652.29	-97.5
3655.055	-98.5
3657.818	-98.5
3660.579	-97.5
3663.338	-95.5
3666.095	-96.5
3668.849	-95.5
3671.602	-95.5
3674.352	-96.5
3677.101	-96.5
3679.847	-103.5
3682.591	-96.5
3685.333	-97.5
3688.073	-100.5
3690.811	-98.5
3693.547	-99.5
3696.281	-100.5
3699.013	-99.5
3701.742	-99.5
3704.47	-101.5
3707.195	-96.5
3709.919	-93.5
3712.64	-104.5
3715.359	-102.5
3718.076	-95.5
3720.792	-104.5
3723.505	-98.5
3726.216	-107.5
3728.925	-98.5
3731.632	-102.5
3734.336	-96.5
3737.039	-99.5
3739.74	-95.5
3742.439	-93.5
3745.136	-100.5
3747.83	-100.5
3750.523	-97.5
3753.213	-117.5
3755.902	-100.5
3758.589	-100.5
3761.273	-105.5
3763.956	-97.5
3766.636	-92.5
3769.315	-101.5
3771.991	-99.5
3774.665	-95.5
3777.338	-96.5
3780.008	-110.5
3782.677	-98.5
3785.343	-101.5
3788.007	-106.5
3790.67	-99.5
3793.33	-98.5
3795.989	-96.5
3798.645	-99.5
3801.299	-102.5
3803.952	-100.5
3806.602	-99.5
3809.251	-95.5
3811.897	-102.5
3814.542	-105.5
3817.184	-99.5
3819.825	-104.5
3822.463	-99.5
3825.1	-100.5
3827.735	-101.5
3830.367	-106.5
3832.998	-100.5
3835.627	-96.5
3838.253	-101.5
3840.878	-99.5
3843.501	-100.5
3846.122	-102.5
3848.741	-103.5
3851.358	-93.5
3853.973	-97.5
3856.586	-102.5
3859.197	-96.5
3861.806	-103.5
3864.414	-98.5
3867.019	-92.5
3869.622	-88.5
3872.224	-80.5
3874.823	-62.5
3877.421	-36.5
3880.016	0.5
3882.61	39.5
3885.202	70.5
3887.792	24.5
3890.38	-23.5
3892.966	-60.5
3895.55	-84.5
3898.132	-92.5
3900.713	-97.5
3903.291	-101.5
3905.868	-92.5
3908.442	-97.5
3911.015	-103.5
3913.586	-99.5
3916.155	-97.5
3918.722	-100.5
3921.287	-100.5
3923.85	-105.5
3926.411	-98.5
3928.971	-102.5
3931.528	-96.5
3934.084	-102.5
3936.638	-105.5
3939.19	-103.5
3941.74	-102.5
3944.288	-104.5
3946.834	-95.5
3949.378	-100.5
3951.921	-97.5
3954.462	-100.5
3957	-95.5
3959.537	-97.5
3962.072	-92.5
3964.606	-97.5
3967.137	-99.5
3969.667	-98.5
3972.194	-101.5
3974.72	-95.5
3977.244	-99.5
3979.766	-101.5
3982.286	-99.5
3984.805	-100.5
3987.321	-100.5
3989.836	-96.5
3992.349	-94.5
3994.86	-97.5
3997.369	-99.5
3999.877	-102.5
4002.382	-99.5
4004.886	-97.5
4007.388	-93.5
4009.888	-97.5
4012.386	-99.5
4014.883	-103.5
4017.377	-97.5
4019.87	-98.5
4022.361	-103.5
4024.85	-101.5
4027.338	-95.5
4029.823	-99.5
4032.307	-98.5
4034.789	-103.5
4037.269	-101.5
4039.747	-104.5
4042.224	-100.5
4044.699	-97.5
4047.172	-101.5
4049.643	-97.5
4052.112	-95.5
4054.58	-100.5
4057.046	-102.5
4059.51	-104.5
4061.972	-97.5
4064.432	-96.5
4066.891	-103.5
4069.348	-94.5
4071.803	-101.5
4074.256	-94.5
4076.708	-101.5
4079.158	-104.5
4081.606	-100.5
4084.052	-103.5
4086.497	-101.5
4088.939	-102.5
4091.38	-99.5
4093.819	-101.5
4096.257	-102.5
4098.693	-107.5
4101.127	-105.5
4103.559	-108.5
4105.989	32.5
4108.418	34.5
4110.845	33.5
4113.27	24.5
4115.694	20.5
4118.115	21.5
4120.535	-98.5
4122.954	-101.5
4125.37	-98.5
4127.785	-100.5
4130.198	-98.5
4132.609	-98.5
4135.019	-102.5
4137.427	-100.5
4139.833	-104.5
4142.237	-107.5