File: Data/Raman/2017-08-29 - Alluminum 2/Aug 29 2017 - Aluminum 2/EC 11 5_RamanShift_2.txt
Data from EC 11 5_RamanShift_2.txt Node

Date: Tue Aug 29 12:56:07 IDT 2017
User: aro
Spectrometer: QEPB0276
Trigger mode: 0
Integration Time (sec): 3.000000E1
Scans to average: 1
Electric dark correction enabled: true
Nonlinearity correction enabled: false
Boxcar width: 0
XAxis mode: Raman Shifts
Number of Pixels in Spectrum: 1044
>>>>>Begin Spectral Data<<<<<
160.701	19.88
166.742	47.88
172.777	135.88
178.805	427.88
184.826	1100.88
190.841	2246.88
196.849	3566.88
202.85	4568.88
208.845	4971.88
214.833	5071.88
220.815	5161.88
226.789	5286.88
232.758	5417.88
238.719	5536.88
244.674	5643.88
250.623	5712.88
256.565	5752.88
262.5	5799.88
268.429	5879.88
274.351	5979.88
280.267	5983.88
286.176	6135.88
292.079	6144.88
297.975	6240.88
303.865	6253.88
309.748	6329.88
315.625	6352.88
321.495	6381.88
327.359	6402.88
333.217	6429.88
339.068	6443.88
344.912	6445.88
350.751	6467.88
356.583	6487.88
362.408	6490.88
368.227	6540.88
374.04	6615.88
379.847	6795.88
385.647	6866.88
391.44	6782.88
397.228	6648.88
403.009	6719.88
408.784	6912.88
414.553	7357.88
420.315	7924.88
426.071	7965.88
431.821	7399.88
437.565	6860.88
443.302	6692.88
449.033	6601.88
454.758	6551.88
460.477	6459.88
466.189	6438.88
471.896	6373.88
477.596	6363.88
483.29	6296.88
488.978	6296.88
494.66	6225.88
500.335	6144.88
506.005	5971.88
511.668	5759.88
517.325	5519.88
522.977	5396.88
528.622	5291.88
534.261	5217.88
539.894	5141.88
545.521	5099.88
551.141	5060.88
556.756	5017.88
562.365	4989.88
567.968	4982.88
573.565	4969.88
579.155	4951.88
584.74	4950.88
590.319	4915.88
595.892	4880.88
601.459	4861.88
607.02	4839.88
612.575	4818.88
618.124	4784.88
623.667	4735.88
629.204	4713.88
634.735	4747.88
640.261	4832.88
645.781	5018.88
651.294	5086.88
656.802	4936.88
662.304	4715.88
667.8	4604.88
673.29	4557.88
678.775	4538.88
684.254	4459.88
689.726	4463.88
695.193	4480.88
700.655	4435.88
706.11	4397.88
711.56	4347.88
717.004	4334.88
722.442	4334.88
727.874	4328.88
733.301	4298.88
738.722	4317.88
744.137	4351.88
749.547	4413.88
754.951	4410.88
760.349	4398.88
765.741	4352.88
771.128	4350.88
776.509	4347.88
781.885	4351.88
787.254	4379.88
792.618	4392.88
797.977	4366.88
803.33	4331.88
808.677	4316.88
814.019	4285.88
819.355	4245.88
824.686	4223.88
830.011	4211.88
835.33	4165.88
840.644	4142.88
845.952	4177.88
851.255	4145.88
856.552	4109.88
861.844	4108.88
867.13	4078.88
872.41	4057.88
877.686	4050.88
882.955	4012.88
888.219	3985.88
893.478	3940.88
898.731	3899.88
903.979	3863.88
909.221	3834.88
914.458	3867.88
919.69	3842.88
924.916	3855.88
930.136	3856.88
935.351	3856.88
940.561	3871.88
945.766	3870.88
950.965	3864.88
956.158	3819.88
961.347	3771.88
966.529	3765.88
971.707	3692.88
976.879	3634.88
982.046	3632.88
987.208	3610.88
992.364	3603.88
997.515	3630.88
1002.66	3665.88
1007.801	3695.88
1012.936	3731.88
1018.066	3757.88
1023.19	3739.88
1028.309	3763.88
1033.423	3780.88
1038.532	3733.88
1043.636	3681.88
1048.734	3657.88
1053.827	3624.88
1058.915	3601.88
1063.998	3592.88
1069.075	3576.88
1074.147	3571.88
1079.214	3580.88
1084.276	3585.88
1089.333	3591.88
1094.385	3610.88
1099.431	3638.88
1104.472	3609.88
1109.509	3566.88
1114.54	3553.88
1119.565	3499.88
1124.586	3427.88
1129.602	3399.88
1134.613	3393.88
1139.618	3357.88
1144.619	3369.88
1149.614	3341.88
1154.604	3395.88
1159.589	3397.88
1164.57	3404.88
1169.545	3400.88
1174.515	3424.88
1179.48	3380.88
1184.44	3348.88
1189.395	3331.88
1194.345	3315.88
1199.29	3295.88
1204.23	3289.88
1209.165	3305.88
1214.095	3320.88
1219.021	3346.88
1223.941	3366.88
1228.856	3340.88
1233.766	3371.88
1238.672	3375.88
1243.572	3360.88
1248.467	3311.88
1253.358	3271.88
1258.244	3217.88
1263.124	3176.88
1268	3139.88
1272.871	3092.88
1277.737	3055.88
1282.599	3051.88
1287.455	3060.88
1292.306	3048.88
1297.153	3078.88
1301.995	3109.88
1306.832	3116.88
1311.664	3146.88
1316.491	3124.88
1321.314	3100.88
1326.132	3070.88
1330.945	3035.88
1335.753	2987.88
1340.556	2950.88
1345.354	2906.88
1350.148	2891.88
1354.937	2897.88
1359.722	2919.88
1364.501	2942.88
1369.276	2964.88
1374.046	2998.88
1378.811	3012.88
1383.572	3009.88
1388.327	2994.88
1393.079	2950.88
1397.825	2874.88
1402.567	2794.88
1407.304	2766.88
1412.036	2697.88
1416.764	2700.88
1421.487	2713.88
1426.205	2670.88
1430.919	2715.88
1435.628	2741.88
1440.333	2750.88
1445.032	2776.88
1449.727	2777.88
1454.418	2782.88
1459.104	2784.88
1463.785	2769.88
1468.462	2763.88
1473.134	2762.88
1477.802	2741.88
1482.465	2764.88
1487.123	2771.88
1491.777	2797.88
1496.426	2818.88
1501.071	2911.88
1505.711	2910.88
1510.347	2982.88
1514.978	2995.88
1519.604	3041.88
1524.226	3056.88
1528.844	2999.88
1533.457	2949.88
1538.065	2935.88
1542.669	2838.88
1547.269	2772.88
1551.864	2750.88
1556.454	2722.88
1561.041	2689.88
1565.622	2636.88
1570.199	2613.88
1574.772	2569.88
1579.34	2569.88
1583.904	2562.88
1588.464	2519.88
1593.019	2512.88
1597.569	2463.88
1602.115	2443.88
1606.657	2402.88
1611.195	2397.88
1615.728	2330.88
1620.256	2329.88
1624.78	2322.88
1629.3	2322.88
1633.816	2344.88
1638.327	2363.88
1642.834	2366.88
1647.336	2398.88
1651.834	2425.88
1656.328	2434.88
1660.817	2496.88
1665.302	2493.88
1669.783	2515.88
1674.259	2505.88
1678.732	2518.88
1683.199	2456.88
1687.663	2455.88
1692.122	2456.88
1696.577	2486.88
1701.028	2513.88
1705.474	2532.88
1709.917	2569.88
1714.355	2560.88
1718.788	2544.88
1723.218	2497.88
1727.643	2441.88
1732.064	2399.88
1736.481	2371.88
1740.893	2318.88
1745.301	2252.88
1749.705	2206.88
1754.105	2178.88
1758.501	2127.88
1762.893	2088.88
1767.28	2070.88
1771.663	2055.88
1776.042	2058.88
1780.417	2089.88
1784.787	2090.88
1789.154	2153.88
1793.516	2188.88
1797.874	2192.88
1802.228	2247.88
1806.578	2225.88
1810.924	2213.88
1815.266	2166.88
1819.603	2097.88
1823.937	2040.88
1828.266	1995.88
1832.591	1959.88
1836.913	1923.88
1841.23	1900.88
1845.543	1903.88
1849.852	1893.88
1854.156	1910.88
1858.457	1899.88
1862.754	1895.88
1867.047	1916.88
1871.335	1924.88
1875.62	1946.88
1879.9	1958.88
1884.177	1941.88
1888.449	1960.88
1892.718	1967.88
1896.982	1962.88
1901.243	1966.88
1905.499	1998.88
1909.752	2010.88
1914	2012.88
1918.245	2056.88
1922.485	2068.88
1926.722	2077.88
1930.954	2098.88
1935.183	2139.88
1939.408	2136.88
1943.628	2146.88
1947.845	2106.88
1952.058	2069.88
1956.267	2020.88
1960.472	1963.88
1964.673	1922.88
1968.87	1863.88
1973.063	1794.88
1977.252	1754.88
1981.438	1733.88
1985.619	1699.88
1989.797	1646.88
1993.971	1633.88
1998.14	1602.88
2002.306	1597.88
2006.469	1596.88
2010.627	1581.88
2014.781	1568.88
2018.932	1557.88
2023.078	1540.88
2027.221	1534.88
2031.36	1486.88
2035.495	1473.88
2039.627	1460.88
2043.754	1467.88
2047.878	1456.88
2051.998	1451.88
2056.114	1460.88
2060.226	1473.88
2064.334	1484.88
2068.439	1505.88
2072.54	1519.88
2076.637	1534.88
2080.73	1542.88
2084.82	1549.88
2088.906	1561.88
2092.988	1570.88
2097.066	1547.88
2101.14	1545.88
2105.211	1506.88
2109.278	1499.88
2113.342	1471.88
2117.401	1450.88
2121.457	1437.88
2125.509	1405.88
2129.558	1399.88
2133.602	1361.88
2137.643	1353.88
2141.681	1339.88
2145.714	1336.88
2149.744	1311.88
2153.77	1288.88
2157.793	1274.88
2161.812	1252.88
2165.827	1230.88
2169.838	1198.88
2173.846	1174.88
2177.851	1152.88
2181.851	1132.88
2185.848	1138.88
2189.841	1106.88
2193.831	1106.88
2197.817	1110.88
2201.799	1087.88
2205.778	1079.88
2209.753	1074.88
2213.725	1094.88
2217.693	1067.88
2221.657	1073.88
2225.618	1072.88
2229.575	1062.88
2233.529	1068.88
2237.479	1049.88
2241.425	1030.88
2245.368	1025.88
2249.307	990.88
2253.243	986.88
2257.175	975.88
2261.104	976.88
2265.029	964.88
2268.95	936.88
2272.868	927.88
2276.783	901.88
2280.694	915.88
2284.601	885.88
2288.505	882.88
2292.405	885.88
2296.302	864.88
2300.195	847.88
2304.085	820.88
2307.971	821.88
2311.854	799.88
2315.734	793.88
2319.609	773.88
2323.482	769.88
2327.351	778.88
2331.216	780.88
2335.078	781.88
2338.937	750.88
2342.792	734.88
2346.643	715.88
2350.492	706.88
2354.336	719.88
2358.178	707.88
2362.015	707.88
2365.85	698.88
2369.681	710.88
2373.508	717.88
2377.333	696.88
2381.153	693.88
2384.971	696.88
2388.785	696.88
2392.595	672.88
2396.402	676.88
2400.206	655.88
2404.007	667.88
2407.804	653.88
2411.597	669.88
2415.388	655.88
2419.174	646.88
2422.958	640.88
2426.738	642.88
2430.515	634.88
2434.289	619.88
2438.059	627.88
2441.825	613.88
2445.589	613.88
2449.349	608.88
2453.106	592.88
2456.859	593.88
2460.61	591.88
2464.356	569.88
2468.1	573.88
2471.84	571.88
2475.577	582.88
2479.311	563.88
2483.041	566.88
2486.768	560.88
2490.492	559.88
2494.213	562.88
2497.93	567.88
2501.644	574.88
2505.355	567.88
2509.062	575.88
2512.766	574.88
2516.467	561.88
2520.165	578.88
2523.859	557.88
2527.551	564.88
2531.239	565.88
2534.923	562.88
2538.605	571.88
2542.283	563.88
2545.958	567.88
2549.63	562.88
2553.299	578.88
2556.964	572.88
2560.626	563.88
2564.285	559.88
2567.941	556.88
2571.594	559.88
2575.243	536.88
2578.89	541.88
2582.533	538.88
2586.173	525.88
2589.809	523.88
2593.443	508.88
2597.073	516.88
2600.701	496.88
2604.325	498.88
2607.946	490.88
2611.564	486.88
2615.178	469.88
2618.79	461.88
2622.398	451.88
2626.004	438.88
2629.606	437.88
2633.205	434.88
2636.801	426.88
2640.394	412.88
2643.983	413.88
2647.57	391.88
2651.153	385.88
2654.734	386.88
2658.311	374.88
2661.885	364.88
2665.456	369.88
2669.025	356.88
2672.589	351.88
2676.151	346.88
2679.71	332.88
2683.266	331.88
2686.819	332.88
2690.368	315.88
2693.915	315.88
2697.458	307.88
2700.999	298.88
2704.536	297.88
2708.071	283.88
2711.602	281.88
2715.13	280.88
2718.656	276.88
2722.178	264.88
2725.697	275.88
2729.214	273.88
2732.727	281.88
2736.237	289.88
2739.744	284.88
2743.249	291.88
2746.75	286.88
2750.248	285.88
2753.743	297.88
2757.236	294.88
2760.725	285.88
2764.211	284.88
2767.695	288.88
2771.175	274.88
2774.652	266.88
2778.127	271.88
2781.598	269.88
2785.067	262.88
2788.532	252.88
2791.995	252.88
2795.455	247.88
2798.911	251.88
2802.365	233.88
2805.816	243.88
2809.264	249.88
2812.709	240.88
2816.151	237.88
2819.59	250.88
2823.026	248.88
2826.46	233.88
2829.89	227.88
2833.318	239.88
2836.742	222.88
2840.164	224.88
2843.583	218.88
2846.999	223.88
2850.412	218.88
2853.822	218.88
2857.229	221.88
2860.634	213.88
2864.035	201.88
2867.434	213.88
2870.83	211.88
2874.223	198.88
2877.613	186.88
2881	192.88
2884.385	178.88
2887.766	170.88
2891.145	164.88
2894.521	163.88
2897.894	153.88
2901.264	143.88
2904.631	152.88
2907.996	136.88
2911.358	143.88
2914.717	126.88
2918.073	125.88
2921.426	119.88
2924.777	113.88
2928.124	121.88
2931.469	110.88
2934.811	109.88
2938.15	110.88
2941.487	110.88
2944.821	106.88
2948.152	95.88
2951.48	90.88
2954.805	92.88
2958.128	95.88
2961.447	86.88
2964.765	82.88
2968.079	80.88
2971.39	84.88
2974.699	81.88
2978.005	86.88
2981.308	85.88
2984.609	74.88
2987.907	89.88
2991.202	77.88
2994.494	86.88
2997.784	79.88
3001.07	81.88
3004.355	72.88
3007.636	72.88
3010.915	58.88
3014.191	59.88
3017.464	50.88
3020.734	53.88
3024.002	44.88
3027.267	47.88
3030.53	41.88
3033.789	35.88
3037.046	22.88
3040.301	21.88
3043.552	20.88
3046.801	19.88
3050.048	17.88
3053.291	15.88
3056.532	20.88
3059.771	20.88
3063.006	8.88
3066.239	9.88
3069.469	10.88
3072.697	-0.12
3075.922	12.88
3079.144	13.88
3082.364	7.88
3085.581	6.88
3088.795	1.88
3092.007	-0.12
3095.216	8.88
3098.423	-2.12
3101.627	8.88
3104.828	-2.12
3108.026	8.88
3111.222	-4.12
3114.416	-3.12
3117.607	-2.12
3120.795	-1.12
3123.98	-7.12
3127.163	-7.12
3130.344	-6.12
3133.521	-13.12
3136.696	-13.12
3139.869	-8.12
3143.039	-18.12
3146.206	-18.12
3149.371	-15.12
3152.533	-21.12
3155.693	-23.12
3158.85	-33.12
3162.005	-29.12
3165.157	-31.12
3168.306	-22.12
3171.453	-32.12
3174.597	-42.12
3177.739	-36.12
3180.878	-40.12
3184.014	-47.12
3187.149	-47.12
3190.28	-49.12
3193.409	-48.12
3196.536	-61.12
3199.659	-51.12
3202.781	-56.12
3205.9	-54.12
3209.016	-70.12
3212.13	-60.12
3215.241	-67.12
3218.35	-61.12
3221.456	-62.12
3224.56	-63.12
3227.661	-67.12
3230.76	-67.12
3233.856	-76.12
3236.95	-68.12
3240.041	-73.12
3243.13	-79.12
3246.216	-74.12
3249.3	-76.12
3252.382	-73.12
3255.46	-69.12
3258.537	-44.12
3261.611	-77.12
3264.682	-72.12
3267.751	-71.12
3270.818	-79.12
3273.882	-79.12
3276.943	-84.12
3280.002	-75.12
3283.059	-87.12
3286.113	-80.12
3289.165	-81.12
3292.214	-89.12
3295.261	-82.12
3298.306	-90.12
3301.348	-92.12
3304.387	-90.12
3307.425	-91.12
3310.459	-95.12
3313.492	-90.12
3316.521	-98.12
3319.549	-94.12
3322.574	-102.12
3325.597	-103.12
3328.617	-96.12
3331.635	-102.12
3334.65	-98.12
3337.663	-108.12
3340.674	-99.12
3343.682	-102.12
3346.688	-105.12
3349.691	-105.12
3352.692	-106.12
3355.691	-109.12
3358.687	-105.12
3361.681	-107.12
3364.673	-108.12
3367.662	-107.12
3370.649	-111.12
3373.633	-113.12
3376.615	-107.12
3379.595	-113.12
3382.572	-112.12
3385.547	-110.12
3388.52	-102.12
3391.49	-109.12
3394.458	-115.12
3397.424	-105.12
3400.387	-108.12
3403.348	-109.12
3406.307	-111.12
3409.263	-116.12
3412.217	-114.12
3415.168	-112.12
3418.118	-114.12
3421.065	-116.12
3424.009	-115.12
3426.951	-118.12
3429.891	-114.12
3432.829	-119.12
3435.764	-121.12
3438.697	-122.12
3441.628	-121.12
3444.557	-115.12
3447.483	-122.12
3450.407	-126.12
3453.328	-118.12
3456.247	-124.12
3459.164	-120.12
3462.079	-118.12
3464.991	-127.12
3467.902	-128.12
3470.809	-126.12
3473.715	-126.12
3476.618	-130.12
3479.519	-121.12
3482.418	-130.12
3485.315	-130.12
3488.209	-133.12
3491.101	-122.12
3493.99	-124.12
3496.878	-129.12
3499.763	-128.12
3502.646	-129.12
3505.527	-132.12
3508.405	-133.12
3511.281	-133.12
3514.155	-124.12
3517.027	-130.12
3519.897	-129.12
3522.764	-125.12
3525.629	-131.12
3528.492	-128.12
3531.352	-129.12
3534.211	-137.12
3537.067	-134.12
3539.921	-128.12
3542.773	-137.12
3545.622	-137.12
3548.469	-140.12
3551.315	-127.12
3554.157	-134.12
3556.998	-136.12
3559.837	-134.12
3562.673	-136.12
3565.507	-139.12
3568.339	-126.12
3571.169	-137.12
3573.996	-134.12
3576.822	-136.12
3579.645	-142.12
3582.466	-138.12
3585.285	-142.12
3588.101	-142.12
3590.916	-140.12
3593.728	-138.12
3596.538	-146.12
3599.346	-146.12
3602.152	-141.12
3604.956	-138.12
3607.757	-140.12
3610.556	-141.12
3613.354	-143.12
3616.149	-149.12
3618.942	-143.12
3621.732	-144.12
3624.521	-142.12
3627.307	-146.12
3630.092	-140.12
3632.874	-145.12
3635.654	-143.12
3638.432	-146.12
3641.208	-142.12
3643.982	-141.12
3646.753	-141.12
3649.523	-149.12
3652.29	-150.12
3655.055	-145.12
3657.818	-146.12
3660.579	-143.12
3663.338	-144.12
3666.095	-146.12
3668.849	-148.12
3671.602	-142.12
3674.352	-149.12
3677.101	-145.12
3679.847	-149.12
3682.591	-145.12
3685.333	-141.12
3688.073	-148.12
3690.811	-144.12
3693.547	-145.12
3696.281	-145.12
3699.013	-145.12
3701.742	-146.12
3704.47	-150.12
3707.195	-150.12
3709.919	-142.12
3712.64	-150.12
3715.359	-147.12
3718.076	-144.12
3720.792	-148.12
3723.505	-147.12
3726.216	-153.12
3728.925	-147.12
3731.632	-152.12
3734.336	-147.12
3737.039	-154.12
3739.74	-149.12
3742.439	-148.12
3745.136	-151.12
3747.83	-144.12
3750.523	-149.12
3753.213	-175.12
3755.902	-151.12
3758.589	-146.12
3761.273	-153.12
3763.956	-149.12
3766.636	-148.12
3769.315	-151.12
3771.991	-152.12
3774.665	-145.12
3777.338	-149.12
3780.008	-161.12
3782.677	-150.12
3785.343	-154.12
3788.007	-160.12
3790.67	-151.12
3793.33	-148.12
3795.989	-146.12
3798.645	-158.12
3801.299	-153.12
3803.952	-154.12
3806.602	-155.12
3809.251	-153.12
3811.897	-153.12
3814.542	-158.12
3817.184	-155.12
3819.825	-151.12
3822.463	-149.12
3825.1	-155.12
3827.735	-154.12
3830.367	-159.12
3832.998	-144.12
3835.627	-148.12
3838.253	-155.12
3840.878	-150.12
3843.501	-151.12
3846.122	-157.12
3848.741	-152.12
3851.358	-148.12
3853.973	-151.12
3856.586	-153.12
3859.197	-150.12
3861.806	-151.12
3864.414	-153.12
3867.019	-148.12
3869.622	-148.12
3872.224	-132.12
3874.823	-123.12
3877.421	-106.12
3880.016	-74.12
3882.61	-52.12
3885.202	-30.12
3887.792	-53.12
3890.38	-96.12
3892.966	-124.12
3895.55	-136.12
3898.132	-150.12
3900.713	-150.12
3903.291	-155.12
3905.868	-154.12
3908.442	-157.12
3911.015	-157.12
3913.586	-154.12
3916.155	-154.12
3918.722	-155.12
3921.287	-153.12
3923.85	-158.12
3926.411	-153.12
3928.971	-155.12
3931.528	-152.12
3934.084	-157.12
3936.638	-159.12
3939.19	-160.12
3941.74	-158.12
3944.288	-160.12
3946.834	-154.12
3949.378	-152.12
3951.921	-150.12
3954.462	-150.12
3957	-155.12
3959.537	-148.12
3962.072	-147.12
3964.606	-151.12
3967.137	-148.12
3969.667	-153.12
3972.194	-153.12
3974.72	-148.12
3977.244	-148.12
3979.766	-157.12
3982.286	-150.12
3984.805	-149.12
3987.321	-148.12
3989.836	-151.12
3992.349	-148.12
3994.86	-153.12
3997.369	-151.12
3999.877	-142.12
4002.382	-143.12
4004.886	-146.12
4007.388	-143.12
4009.888	-148.12
4012.386	-148.12
4014.883	-146.12
4017.377	-146.12
4019.87	-149.12
4022.361	-151.12
4024.85	-146.12
4027.338	-143.12
4029.823	-145.12
4032.307	-143.12
4034.789	-143.12
4037.269	-151.12
4039.747	-146.12
4042.224	-148.12
4044.699	-145.12
4047.172	-146.12
4049.643	-145.12
4052.112	-142.12
4054.58	-151.12
4057.046	-143.12
4059.51	-151.12
4061.972	-149.12
4064.432	-147.12
4066.891	-149.12
4069.348	-143.12
4071.803	-148.12
4074.256	-148.12
4076.708	-150.12
4079.158	-147.12
4081.606	-149.12
4084.052	-152.12
4086.497	-151.12
4088.939	-151.12
4091.38	-150.12
4093.819	-151.12
4096.257	-157.12
4098.693	-158.12
4101.127	-157.12
4103.559	-159.12
4105.989	-4.12
4108.418	-4.12
4110.845	-5.12
4113.27	-6.12
4115.694	-3.12
4118.115	4.88
4120.535	-150.12
4122.954	-148.12
4125.37	-151.12
4127.785	-152.12
4130.198	-152.12
4132.609	-150.12
4135.019	-157.12
4137.427	-157.12
4139.833	-155.12
4142.237	-162.12