File: Data/Raman/2017-08-29 - Alluminum 2/Aug 29 2017 - Aluminum 2/EC 12 1_RamanShift_1.txt
Data from EC 12 1_RamanShift_1.txt Node

Date: Tue Aug 29 12:12:37 IDT 2017
User: aro
Spectrometer: QEPB0276
Trigger mode: 0
Integration Time (sec): 3.000000E1
Scans to average: 1
Electric dark correction enabled: true
Nonlinearity correction enabled: false
Boxcar width: 0
XAxis mode: Raman Shifts
Number of Pixels in Spectrum: 1044
>>>>>Begin Spectral Data<<<<<
160.701	18.38
166.742	48.38
172.777	99.38
178.805	272.38
184.826	676.38
190.841	1408.38
196.849	2238.38
202.85	2871.38
208.845	3124.38
214.833	3158.38
220.815	3207.38
226.789	3307.38
232.758	3368.38
238.719	3460.38
244.674	3514.38
250.623	3558.38
256.565	3603.38
262.5	3623.38
268.429	3668.38
274.351	3710.38
280.267	3768.38
286.176	3813.38
292.079	3870.38
297.975	3945.38
303.865	3969.38
309.748	3972.38
315.625	4032.38
321.495	4018.38
327.359	4043.38
333.217	4071.38
339.068	4116.38
344.912	4118.38
350.751	4156.38
356.583	4139.38
362.408	4168.38
368.227	4244.38
374.04	4342.38
379.847	4532.38
385.647	4596.38
391.44	4528.38
397.228	4381.38
403.009	4435.38
408.784	4640.38
414.553	5170.38
420.315	5846.38
426.071	5838.38
431.821	5180.38
437.565	4603.38
443.302	4451.38
449.033	4336.38
454.758	4310.38
460.477	4224.38
466.189	4155.38
471.896	4118.38
477.596	4064.38
483.29	4066.38
488.978	4047.38
494.66	4019.38
500.335	3895.38
506.005	3679.38
511.668	3490.38
517.325	3299.38
522.977	3131.38
528.622	3035.38
534.261	2920.38
539.894	2890.38
545.521	2825.38
551.141	2800.38
556.756	2746.38
562.365	2767.38
567.968	2720.38
573.565	2706.38
579.155	2714.38
584.74	2721.38
590.319	2699.38
595.892	2682.38
601.459	2671.38
607.02	2674.38
612.575	2639.38
618.124	2599.38
623.667	2573.38
629.204	2548.38
634.735	2588.38
640.261	2743.38
645.781	2949.38
651.294	3005.38
656.802	2857.38
662.304	2600.38
667.8	2476.38
673.29	2421.38
678.775	2411.38
684.254	2391.38
689.726	2373.38
695.193	2348.38
700.655	2346.38
706.11	2326.38
711.56	2310.38
717.004	2319.38
722.442	2307.38
727.874	2303.38
733.301	2294.38
738.722	2310.38
744.137	2356.38
749.547	2395.38
754.951	2451.38
760.349	2413.38
765.741	2372.38
771.128	2339.38
776.509	2370.38
781.885	2396.38
787.254	2410.38
792.618	2423.38
797.977	2415.38
803.33	2412.38
808.677	2410.38
814.019	2363.38
819.355	2350.38
824.686	2318.38
830.011	2316.38
835.33	2302.38
840.644	2256.38
845.952	2256.38
851.255	2244.38
856.552	2210.38
861.844	2191.38
867.13	2185.38
872.41	2148.38
877.686	2109.38
882.955	2086.38
888.219	2063.38
893.478	2039.38
898.731	2047.38
903.979	2035.38
909.221	2010.38
914.458	2000.38
919.69	2003.38
924.916	2009.38
930.136	2020.38
935.351	1993.38
940.561	2016.38
945.766	1980.38
950.965	1995.38
956.158	1982.38
961.347	1967.38
966.529	1948.38
971.707	1919.38
976.879	1907.38
982.046	1884.38
987.208	1880.38
992.364	1866.38
997.515	1887.38
1002.66	1891.38
1007.801	1916.38
1012.936	1931.38
1018.066	1945.38
1023.19	1972.38
1028.309	1964.38
1033.423	1965.38
1038.532	1951.38
1043.636	1972.38
1048.734	1933.38
1053.827	1921.38
1058.915	1895.38
1063.998	1898.38
1069.075	1868.38
1074.147	1850.38
1079.214	1897.38
1084.276	1884.38
1089.333	1889.38
1094.385	1891.38
1099.431	1892.38
1104.472	1851.38
1109.509	1852.38
1114.54	1821.38
1119.565	1818.38
1124.586	1761.38
1129.602	1752.38
1134.613	1727.38
1139.618	1728.38
1144.619	1726.38
1149.614	1737.38
1154.604	1736.38
1159.589	1751.38
1164.57	1748.38
1169.545	1755.38
1174.515	1776.38
1179.48	1760.38
1184.44	1754.38
1189.395	1717.38
1194.345	1715.38
1199.29	1712.38
1204.23	1698.38
1209.165	1713.38
1214.095	1726.38
1219.021	1720.38
1223.941	1724.38
1228.856	1726.38
1233.766	1731.38
1238.672	1729.38
1243.572	1720.38
1248.467	1691.38
1253.358	1671.38
1258.244	1632.38
1263.124	1598.38
1268	1600.38
1272.871	1554.38
1277.737	1540.38
1282.599	1545.38
1287.455	1548.38
1292.306	1554.38
1297.153	1554.38
1301.995	1549.38
1306.832	1563.38
1311.664	1547.38
1316.491	1553.38
1321.314	1540.38
1326.132	1520.38
1330.945	1495.38
1335.753	1457.38
1340.556	1438.38
1345.354	1413.38
1350.148	1392.38
1354.937	1398.38
1359.722	1374.38
1364.501	1395.38
1369.276	1374.38
1374.046	1378.38
1378.811	1399.38
1383.572	1401.38
1388.327	1414.38
1393.079	1394.38
1397.825	1362.38
1402.567	1356.38
1407.304	1317.38
1412.036	1304.38
1416.764	1296.38
1421.487	1293.38
1426.205	1274.38
1430.919	1298.38
1435.628	1293.38
1440.333	1323.38
1445.032	1318.38
1449.727	1333.38
1454.418	1312.38
1459.104	1297.38
1463.785	1285.38
1468.462	1273.38
1473.134	1256.38
1477.802	1234.38
1482.465	1240.38
1487.123	1222.38
1491.777	1213.38
1496.426	1231.38
1501.071	1243.38
1505.711	1258.38
1510.347	1261.38
1514.978	1284.38
1519.604	1304.38
1524.226	1296.38
1528.844	1273.38
1533.457	1276.38
1538.065	1258.38
1542.669	1241.38
1547.269	1212.38
1551.864	1214.38
1556.454	1224.38
1561.041	1201.38
1565.622	1193.38
1570.199	1181.38
1574.772	1171.38
1579.34	1163.38
1583.904	1168.38
1588.464	1156.38
1593.019	1150.38
1597.569	1138.38
1602.115	1101.38
1606.657	1091.38
1611.195	1086.38
1615.728	1052.38
1620.256	1061.38
1624.78	1052.38
1629.3	1046.38
1633.816	1040.38
1638.327	1030.38
1642.834	1055.38
1647.336	1055.38
1651.834	1065.38
1656.328	1068.38
1660.817	1066.38
1665.302	1031.38
1669.783	1037.38
1674.259	1051.38
1678.732	1022.38
1683.199	1014.38
1687.663	1008.38
1692.122	994.38
1696.577	986.38
1701.028	990.38
1705.474	995.38
1709.917	993.38
1714.355	1003.38
1718.788	980.38
1723.218	985.38
1727.643	986.38
1732.064	972.38
1736.481	944.38
1740.893	930.38
1745.301	915.38
1749.705	895.38
1754.105	868.38
1758.501	847.38
1762.893	826.38
1767.28	820.38
1771.663	808.38
1776.042	807.38
1780.417	801.38
1784.787	791.38
1789.154	816.38
1793.516	816.38
1797.874	811.38
1802.228	825.38
1806.578	852.38
1810.924	834.38
1815.266	826.38
1819.603	805.38
1823.937	803.38
1828.266	772.38
1832.591	774.38
1836.913	758.38
1841.23	753.38
1845.543	753.38
1849.852	748.38
1854.156	751.38
1858.457	753.38
1862.754	744.38
1867.047	760.38
1871.335	759.38
1875.62	756.38
1879.9	755.38
1884.177	742.38
1888.449	741.38
1892.718	745.38
1896.982	737.38
1901.243	715.38
1905.499	734.38
1909.752	714.38
1914	730.38
1918.245	738.38
1922.485	744.38
1926.722	749.38
1930.954	750.38
1935.183	753.38
1939.408	754.38
1943.628	758.38
1947.845	751.38
1952.058	743.38
1956.267	740.38
1960.472	711.38
1964.673	694.38
1968.87	672.38
1973.063	680.38
1977.252	653.38
1981.438	641.38
1985.619	631.38
1989.797	607.38
1993.971	622.38
1998.14	614.38
2002.306	616.38
2006.469	622.38
2010.627	599.38
2014.781	604.38
2018.932	588.38
2023.078	582.38
2027.221	585.38
2031.36	571.38
2035.495	566.38
2039.627	549.38
2043.754	552.38
2047.878	550.38
2051.998	542.38
2056.114	527.38
2060.226	544.38
2064.334	555.38
2068.439	550.38
2072.54	559.38
2076.637	552.38
2080.73	561.38
2084.82	554.38
2088.906	558.38
2092.988	556.38
2097.066	566.38
2101.14	545.38
2105.211	547.38
2109.278	536.38
2113.342	539.38
2117.401	523.38
2121.457	536.38
2125.509	525.38
2129.558	514.38
2133.602	504.38
2137.643	502.38
2141.681	484.38
2145.714	499.38
2149.744	489.38
2153.77	488.38
2157.793	484.38
2161.812	471.38
2165.827	466.38
2169.838	457.38
2173.846	466.38
2177.851	460.38
2181.851	436.38
2185.848	441.38
2189.841	431.38
2193.831	423.38
2197.817	429.38
2201.799	425.38
2205.778	430.38
2209.753	422.38
2213.725	413.38
2217.693	420.38
2221.657	411.38
2225.618	421.38
2229.575	425.38
2233.529	419.38
2237.479	411.38
2241.425	414.38
2245.368	411.38
2249.307	400.38
2253.243	387.38
2257.175	392.38
2261.104	395.38
2265.029	387.38
2268.95	366.38
2272.868	377.38
2276.783	360.38
2280.694	362.38
2284.601	359.38
2288.505	359.38
2292.405	350.38
2296.302	355.38
2300.195	340.38
2304.085	359.38
2307.971	342.38
2311.854	337.38
2315.734	321.38
2319.609	321.38
2323.482	325.38
2327.351	335.38
2331.216	349.38
2335.078	359.38
2338.937	329.38
2342.792	307.38
2346.643	312.38
2350.492	324.38
2354.336	310.38
2358.178	300.38
2362.015	305.38
2365.85	315.38
2369.681	307.38
2373.508	312.38
2377.333	301.38
2381.153	318.38
2384.971	312.38
2388.785	303.38
2392.595	303.38
2396.402	307.38
2400.206	300.38
2404.007	308.38
2407.804	291.38
2411.597	295.38
2415.388	288.38
2419.174	288.38
2422.958	298.38
2426.738	291.38
2430.515	290.38
2434.289	295.38
2438.059	274.38
2441.825	279.38
2445.589	275.38
2449.349	269.38
2453.106	271.38
2456.859	268.38
2460.61	264.38
2464.356	256.38
2468.1	250.38
2471.84	255.38
2475.577	265.38
2479.311	256.38
2483.041	248.38
2486.768	241.38
2490.492	243.38
2494.213	247.38
2497.93	256.38
2501.644	244.38
2505.355	236.38
2509.062	247.38
2512.766	240.38
2516.467	240.38
2520.165	236.38
2523.859	234.38
2527.551	232.38
2531.239	240.38
2534.923	222.38
2538.605	236.38
2542.283	235.38
2545.958	228.38
2549.63	228.38
2553.299	234.38
2556.964	234.38
2560.626	221.38
2564.285	215.38
2567.941	224.38
2571.594	219.38
2575.243	225.38
2578.89	226.38
2582.533	207.38
2586.173	209.38
2589.809	207.38
2593.443	209.38
2597.073	203.38
2600.701	199.38
2604.325	206.38
2607.946	198.38
2611.564	198.38
2615.178	195.38
2618.79	183.38
2622.398	183.38
2626.004	186.38
2629.606	175.38
2633.205	185.38
2636.801	167.38
2640.394	164.38
2643.983	168.38
2647.57	159.38
2651.153	157.38
2654.734	162.38
2658.311	155.38
2661.885	139.38
2665.456	145.38
2669.025	142.38
2672.589	151.38
2676.151	130.38
2679.71	141.38
2683.266	138.38
2686.819	135.38
2690.368	133.38
2693.915	125.38
2697.458	112.38
2700.999	122.38
2704.536	114.38
2708.071	112.38
2711.602	114.38
2715.13	100.38
2718.656	108.38
2722.178	97.38
2725.697	96.38
2729.214	98.38
2732.727	107.38
2736.237	102.38
2739.744	100.38
2743.249	102.38
2746.75	97.38
2750.248	104.38
2753.743	98.38
2757.236	106.38
2760.725	98.38
2764.211	82.38
2767.695	103.38
2771.175	100.38
2774.652	97.38
2778.127	96.38
2781.598	89.38
2785.067	88.38
2788.532	89.38
2791.995	86.38
2795.455	87.38
2798.911	87.38
2802.365	82.38
2805.816	90.38
2809.264	79.38
2812.709	85.38
2816.151	82.38
2819.59	86.38
2823.026	77.38
2826.46	78.38
2829.89	71.38
2833.318	77.38
2836.742	74.38
2840.164	75.38
2843.583	71.38
2846.999	83.38
2850.412	72.38
2853.822	73.38
2857.229	79.38
2860.634	67.38
2864.035	68.38
2867.434	74.38
2870.83	74.38
2874.223	60.38
2877.613	60.38
2881	60.38
2884.385	56.38
2887.766	49.38
2891.145	52.38
2894.521	48.38
2897.894	37.38
2901.264	38.38
2904.631	32.38
2907.996	34.38
2911.358	38.38
2914.717	38.38
2918.073	34.38
2921.426	26.38
2924.777	27.38
2928.124	27.38
2931.469	25.38
2934.811	24.38
2938.15	26.38
2941.487	21.38
2944.821	22.38
2948.152	9.38
2951.48	7.38
2954.805	12.38
2958.128	11.38
2961.447	9.38
2964.765	0.38
2968.079	10.38
2971.39	3.38
2974.699	7.38
2978.005	10.38
2981.308	6.38
2984.609	3.38
2987.907	5.38
2991.202	6.38
2994.494	5.38
2997.784	8.38
3001.07	4.38
3004.355	2.38
3007.636	7.38
3010.915	-2.62
3014.191	0.38
3017.464	1.38
3020.734	-5.62
3024.002	-10.62
3027.267	-4.62
3030.53	-7.62
3033.789	-4.62
3037.046	-9.62
3040.301	-16.62
3043.552	-18.62
3046.801	-14.62
3050.048	-20.62
3053.291	-18.62
3056.532	-17.62
3059.771	-9.62
3063.006	-27.62
3066.239	-18.62
3069.469	-22.62
3072.697	-27.62
3075.922	-25.62
3079.144	-23.62
3082.364	-31.62
3085.581	-25.62
3088.795	-24.62
3092.007	-28.62
3095.216	-29.62
3098.423	-32.62
3101.627	-21.62
3104.828	-32.62
3108.026	-29.62
3111.222	-36.62
3114.416	-33.62
3117.607	-33.62
3120.795	-30.62
3123.98	-36.62
3127.163	-34.62
3130.344	-38.62
3133.521	-41.62
3136.696	-30.62
3139.869	-35.62
3143.039	-37.62
3146.206	-42.62
3149.371	-36.62
3152.533	-36.62
3155.693	-46.62
3158.85	-39.62
3162.005	-45.62
3165.157	-41.62
3168.306	-40.62
3171.453	-48.62
3174.597	-46.62
3177.739	-46.62
3180.878	-51.62
3184.014	-53.62
3187.149	-54.62
3190.28	-49.62
3193.409	-50.62
3196.536	-58.62
3199.659	-60.62
3202.781	-55.62
3205.9	-55.62
3209.016	-64.62
3212.13	-59.62
3215.241	-55.62
3218.35	-60.62
3221.456	-63.62
3224.56	-59.62
3227.661	-66.62
3230.76	-62.62
3233.856	-68.62
3236.95	-64.62
3240.041	-63.62
3243.13	-66.62
3246.216	-65.62
3249.3	-69.62
3252.382	-65.62
3255.46	-68.62
3258.537	-40.62
3261.611	-64.62
3264.682	-70.62
3267.751	-66.62
3270.818	-70.62
3273.882	-70.62
3276.943	-69.62
3280.002	-67.62
3283.059	-74.62
3286.113	-72.62
3289.165	-67.62
3292.214	-76.62
3295.261	-72.62
3298.306	-73.62
3301.348	-75.62
3304.387	-78.62
3307.425	-76.62
3310.459	-78.62
3313.492	-75.62
3316.521	-80.62
3319.549	-79.62
3322.574	-77.62
3325.597	-82.62
3328.617	-79.62
3331.635	-81.62
3334.65	-82.62
3337.663	-87.62
3340.674	-74.62
3343.682	-79.62
3346.688	-80.62
3349.691	-83.62
3352.692	-81.62
3355.691	-82.62
3358.687	-83.62
3361.681	-81.62
3364.673	-84.62
3367.662	-74.62
3370.649	-78.62
3373.633	-84.62
3376.615	-79.62
3379.595	-84.62
3382.572	-81.62
3385.547	-84.62
3388.52	-76.62
3391.49	-81.62
3394.458	-85.62
3397.424	-85.62
3400.387	-81.62
3403.348	-78.62
3406.307	-80.62
3409.263	-82.62
3412.217	-83.62
3415.168	-89.62
3418.118	-90.62
3421.065	-88.62
3424.009	-83.62
3426.951	-89.62
3429.891	-84.62
3432.829	-88.62
3435.764	-88.62
3438.697	-89.62
3441.628	-87.62
3444.557	-89.62
3447.483	-93.62
3450.407	-94.62
3453.328	-87.62
3456.247	-96.62
3459.164	-93.62
3462.079	-91.62
3464.991	-94.62
3467.902	-99.62
3470.809	-99.62
3473.715	-92.62
3476.618	-100.62
3479.519	-95.62
3482.418	-95.62
3485.315	-100.62
3488.209	-100.62
3491.101	-94.62
3493.99	-93.62
3496.878	-97.62
3499.763	-100.62
3502.646	-90.62
3505.527	-103.62
3508.405	-99.62
3511.281	-102.62
3514.155	-90.62
3517.027	-97.62
3519.897	-94.62
3522.764	-96.62
3525.629	-92.62
3528.492	-99.62
3531.352	-95.62
3534.211	-97.62
3537.067	-93.62
3539.921	-95.62
3542.773	-97.62
3545.622	-97.62
3548.469	-97.62
3551.315	-95.62
3554.157	-89.62
3556.998	-100.62
3559.837	-92.62
3562.673	-94.62
3565.507	-96.62
3568.339	-96.62
3571.169	-97.62
3573.996	-96.62
3576.822	-94.62
3579.645	-101.62
3582.466	-92.62
3585.285	-98.62
3588.101	-104.62
3590.916	-102.62
3593.728	-97.62
3596.538	-103.62
3599.346	-100.62
3602.152	-109.62
3604.956	-101.62
3607.757	-100.62
3610.556	-100.62
3613.354	-101.62
3616.149	-110.62
3618.942	-103.62
3621.732	-105.62
3624.521	-103.62
3627.307	-105.62
3630.092	-107.62
3632.874	-101.62
3635.654	-100.62
3638.432	-103.62
3641.208	-106.62
3643.982	-108.62
3646.753	-103.62
3649.523	-110.62
3652.29	-109.62
3655.055	-104.62
3657.818	-107.62
3660.579	-105.62
3663.338	-104.62
3666.095	-106.62
3668.849	-109.62
3671.602	-105.62
3674.352	-102.62
3677.101	-104.62
3679.847	-110.62
3682.591	-109.62
3685.333	-102.62
3688.073	-108.62
3690.811	-104.62
3693.547	-105.62
3696.281	-105.62
3699.013	-109.62
3701.742	-102.62
3704.47	-105.62
3707.195	-106.62
3709.919	-102.62
3712.64	-107.62
3715.359	-105.62
3718.076	-97.62
3720.792	-105.62
3723.505	-104.62
3726.216	-109.62
3728.925	-108.62
3731.632	-111.62
3734.336	-107.62
3737.039	-108.62
3739.74	-102.62
3742.439	-103.62
3745.136	-108.62
3747.83	-106.62
3750.523	-104.62
3753.213	-123.62
3755.902	-109.62
3758.589	-101.62
3761.273	-111.62
3763.956	-104.62
3766.636	-111.62
3769.315	-109.62
3771.991	-108.62
3774.665	-103.62
3777.338	-103.62
3780.008	-112.62
3782.677	-108.62
3785.343	-109.62
3788.007	-112.62
3790.67	-103.62
3793.33	-106.62
3795.989	-104.62
3798.645	-111.62
3801.299	-104.62
3803.952	-111.62
3806.602	-110.62
3809.251	-103.62
3811.897	-110.62
3814.542	-108.62
3817.184	-105.62
3819.825	-107.62
3822.463	-108.62
3825.1	-114.62
3827.735	-110.62
3830.367	-113.62
3832.998	-104.62
3835.627	-105.62
3838.253	-109.62
3840.878	-108.62
3843.501	-109.62
3846.122	-109.62
3848.741	-110.62
3851.358	-108.62
3853.973	-110.62
3856.586	-112.62
3859.197	-102.62
3861.806	-108.62
3864.414	-108.62
3867.019	-102.62
3869.622	-94.62
3872.224	-88.62
3874.823	-64.62
3877.421	-41.62
3880.016	6.38
3882.61	47.38
3885.202	69.38
3887.792	32.38
3890.38	-20.62
3892.966	-68.62
3895.55	-85.62
3898.132	-101.62
3900.713	-102.62
3903.291	-107.62
3905.868	-104.62
3908.442	-108.62
3911.015	-109.62
3913.586	-113.62
3916.155	-110.62
3918.722	-113.62
3921.287	-109.62
3923.85	-112.62
3926.411	-104.62
3928.971	-110.62
3931.528	-106.62
3934.084	-111.62
3936.638	-110.62
3939.19	-112.62
3941.74	-109.62
3944.288	-111.62
3946.834	-107.62
3949.378	-106.62
3951.921	-104.62
3954.462	-104.62
3957	-106.62
3959.537	-101.62
3962.072	-98.62
3964.606	-106.62
3967.137	-102.62
3969.667	-107.62
3972.194	-106.62
3974.72	-112.62
3977.244	-105.62
3979.766	-109.62
3982.286	-104.62
3984.805	-108.62
3987.321	-104.62
3989.836	-103.62
3992.349	-102.62
3994.86	-106.62
3997.369	-105.62
3999.877	-108.62
4002.382	-104.62
4004.886	-104.62
4007.388	-104.62
4009.888	-102.62
4012.386	-106.62
4014.883	-111.62
4017.377	-106.62
4019.87	-101.62
4022.361	-106.62
4024.85	-111.62
4027.338	-106.62
4029.823	-107.62
4032.307	-102.62
4034.789	-109.62
4037.269	-106.62
4039.747	-110.62
4042.224	-105.62
4044.699	-109.62
4047.172	-105.62
4049.643	-103.62
4052.112	-106.62
4054.58	-108.62
4057.046	-105.62
4059.51	-108.62
4061.972	-107.62
4064.432	-99.62
4066.891	-110.62
4069.348	-102.62
4071.803	-107.62
4074.256	-104.62
4076.708	-109.62
4079.158	-103.62
4081.606	-104.62
4084.052	-109.62
4086.497	-109.62
4088.939	-106.62
4091.38	-106.62
4093.819	-108.62
4096.257	-109.62
4098.693	-110.62
4101.127	-114.62
4103.559	-115.62
4105.989	35.38
4108.418	24.38
4110.845	22.38
4113.27	20.38
4115.694	19.38
4118.115	22.38
4120.535	-106.62
4122.954	-105.62
4125.37	-107.62
4127.785	-106.62
4130.198	-104.62
4132.609	-108.62
4135.019	-109.62
4137.427	-108.62
4139.833	-108.62
4142.237	-111.62