File: Data/Raman/2017-08-29 - Alluminum 2/Aug 29 2017 - Aluminum 2/EC 12 4_RamanShift_3.txt
Data from EC 12 4_RamanShift_3.txt Node

Date: Tue Aug 29 12:40:07 IDT 2017
User: aro
Spectrometer: QEPB0276
Trigger mode: 0
Integration Time (sec): 3.000000E1
Scans to average: 1
Electric dark correction enabled: true
Nonlinearity correction enabled: false
Boxcar width: 0
XAxis mode: Raman Shifts
Number of Pixels in Spectrum: 1044
>>>>>Begin Spectral Data<<<<<
160.701	25.12
166.742	37.12
172.777	95.12
178.805	221.12
184.826	568.12
190.841	1143.12
196.849	1847.12
202.85	2346.12
208.845	2575.12
214.833	2598.12
220.815	2652.12
226.789	2682.12
232.758	2768.12
238.719	2850.12
244.674	2861.12
250.623	2956.12
256.565	2952.12
262.5	3031.12
268.429	3027.12
274.351	3068.12
280.267	3124.12
286.176	3171.12
292.079	3210.12
297.975	3248.12
303.865	3271.12
309.748	3317.12
315.625	3355.12
321.495	3338.12
327.359	3367.12
333.217	3409.12
339.068	3415.12
344.912	3427.12
350.751	3457.12
356.583	3474.12
362.408	3489.12
368.227	3525.12
374.04	3670.12
379.847	3792.12
385.647	3819.12
391.44	3742.12
397.228	3671.12
403.009	3694.12
408.784	3879.12
414.553	4324.12
420.315	4836.12
426.071	4837.12
431.821	4346.12
437.565	3885.12
443.302	3716.12
449.033	3638.12
454.758	3577.12
460.477	3553.12
466.189	3521.12
471.896	3467.12
477.596	3433.12
483.29	3409.12
488.978	3436.12
494.66	3367.12
500.335	3279.12
506.005	3094.12
511.668	2933.12
517.325	2782.12
522.977	2639.12
528.622	2532.12
534.261	2465.12
539.894	2436.12
545.521	2354.12
551.141	2339.12
556.756	2336.12
562.365	2325.12
567.968	2287.12
573.565	2297.12
579.155	2301.12
584.74	2290.12
590.319	2279.12
595.892	2239.12
601.459	2266.12
607.02	2242.12
612.575	2225.12
618.124	2198.12
623.667	2176.12
629.204	2148.12
634.735	2199.12
640.261	2309.12
645.781	2459.12
651.294	2514.12
656.802	2389.12
662.304	2206.12
667.8	2112.12
673.29	2062.12
678.775	2041.12
684.254	2021.12
689.726	2037.12
695.193	1999.12
700.655	1993.12
706.11	1992.12
711.56	1977.12
717.004	1969.12
722.442	1969.12
727.874	1963.12
733.301	1977.12
738.722	1963.12
744.137	2010.12
749.547	2050.12
754.951	2072.12
760.349	2073.12
765.741	2030.12
771.128	2018.12
776.509	2025.12
781.885	2060.12
787.254	2079.12
792.618	2097.12
797.977	2095.12
803.33	2071.12
808.677	2066.12
814.019	2059.12
819.355	2015.12
824.686	2011.12
830.011	1996.12
835.33	1966.12
840.644	1967.12
845.952	1946.12
851.255	1931.12
856.552	1902.12
861.844	1884.12
867.13	1864.12
872.41	1849.12
877.686	1836.12
882.955	1809.12
888.219	1805.12
893.478	1769.12
898.731	1771.12
903.979	1760.12
909.221	1741.12
914.458	1751.12
919.69	1735.12
924.916	1756.12
930.136	1749.12
935.351	1743.12
940.561	1743.12
945.766	1754.12
950.965	1741.12
956.158	1727.12
961.347	1711.12
966.529	1703.12
971.707	1658.12
976.879	1656.12
982.046	1640.12
987.208	1645.12
992.364	1646.12
997.515	1651.12
1002.66	1664.12
1007.801	1668.12
1012.936	1672.12
1018.066	1695.12
1023.19	1718.12
1028.309	1720.12
1033.423	1711.12
1038.532	1702.12
1043.636	1709.12
1048.734	1707.12
1053.827	1684.12
1058.915	1652.12
1063.998	1653.12
1069.075	1651.12
1074.147	1639.12
1079.214	1673.12
1084.276	1644.12
1089.333	1658.12
1094.385	1666.12
1099.431	1666.12
1104.472	1633.12
1109.509	1634.12
1114.54	1605.12
1119.565	1569.12
1124.586	1564.12
1129.602	1528.12
1134.613	1530.12
1139.618	1509.12
1144.619	1528.12
1149.614	1512.12
1154.604	1540.12
1159.589	1551.12
1164.57	1546.12
1169.545	1537.12
1174.515	1557.12
1179.48	1573.12
1184.44	1529.12
1189.395	1520.12
1194.345	1509.12
1199.29	1499.12
1204.23	1489.12
1209.165	1502.12
1214.095	1527.12
1219.021	1526.12
1223.941	1530.12
1228.856	1565.12
1233.766	1546.12
1238.672	1536.12
1243.572	1529.12
1248.467	1503.12
1253.358	1480.12
1258.244	1457.12
1263.124	1433.12
1268	1420.12
1272.871	1400.12
1277.737	1364.12
1282.599	1363.12
1287.455	1353.12
1292.306	1373.12
1297.153	1395.12
1301.995	1388.12
1306.832	1401.12
1311.664	1393.12
1316.491	1385.12
1321.314	1365.12
1326.132	1350.12
1330.945	1328.12
1335.753	1309.12
1340.556	1287.12
1345.354	1267.12
1350.148	1254.12
1354.937	1245.12
1359.722	1242.12
1364.501	1242.12
1369.276	1245.12
1374.046	1266.12
1378.811	1273.12
1383.572	1266.12
1388.327	1284.12
1393.079	1281.12
1397.825	1251.12
1402.567	1240.12
1407.304	1198.12
1412.036	1170.12
1416.764	1175.12
1421.487	1168.12
1426.205	1175.12
1430.919	1178.12
1435.628	1169.12
1440.333	1182.12
1445.032	1197.12
1449.727	1193.12
1454.418	1194.12
1459.104	1176.12
1463.785	1163.12
1468.462	1145.12
1473.134	1143.12
1477.802	1111.12
1482.465	1120.12
1487.123	1119.12
1491.777	1111.12
1496.426	1119.12
1501.071	1139.12
1505.711	1155.12
1510.347	1175.12
1514.978	1183.12
1519.604	1206.12
1524.226	1208.12
1528.844	1190.12
1533.457	1179.12
1538.065	1163.12
1542.669	1156.12
1547.269	1136.12
1551.864	1134.12
1556.454	1135.12
1561.041	1124.12
1565.622	1097.12
1570.199	1085.12
1574.772	1078.12
1579.34	1075.12
1583.904	1086.12
1588.464	1065.12
1593.019	1060.12
1597.569	1060.12
1602.115	1028.12
1606.657	1016.12
1611.195	990.12
1615.728	972.12
1620.256	971.12
1624.78	967.12
1629.3	952.12
1633.816	951.12
1638.327	952.12
1642.834	968.12
1647.336	983.12
1651.834	972.12
1656.328	977.12
1660.817	984.12
1665.302	982.12
1669.783	964.12
1674.259	970.12
1678.732	955.12
1683.199	938.12
1687.663	920.12
1692.122	926.12
1696.577	925.12
1701.028	922.12
1705.474	931.12
1709.917	957.12
1714.355	969.12
1718.788	962.12
1723.218	940.12
1727.643	925.12
1732.064	917.12
1736.481	901.12
1740.893	875.12
1745.301	856.12
1749.705	854.12
1754.105	836.12
1758.501	803.12
1762.893	779.12
1767.28	778.12
1771.663	751.12
1776.042	754.12
1780.417	752.12
1784.787	752.12
1789.154	773.12
1793.516	774.12
1797.874	784.12
1802.228	793.12
1806.578	809.12
1810.924	812.12
1815.266	800.12
1819.603	770.12
1823.937	751.12
1828.266	752.12
1832.591	726.12
1836.913	728.12
1841.23	715.12
1845.543	705.12
1849.852	723.12
1854.156	711.12
1858.457	707.12
1862.754	712.12
1867.047	714.12
1871.335	719.12
1875.62	716.12
1879.9	710.12
1884.177	700.12
1888.449	700.12
1892.718	697.12
1896.982	703.12
1901.243	694.12
1905.499	694.12
1909.752	696.12
1914	704.12
1918.245	710.12
1922.485	701.12
1926.722	729.12
1930.954	719.12
1935.183	726.12
1939.408	742.12
1943.628	746.12
1947.845	729.12
1952.058	730.12
1956.267	711.12
1960.472	698.12
1964.673	691.12
1968.87	666.12
1973.063	655.12
1977.252	648.12
1981.438	636.12
1985.619	629.12
1989.797	614.12
1993.971	611.12
1998.14	607.12
2002.306	603.12
2006.469	602.12
2010.627	599.12
2014.781	586.12
2018.932	585.12
2023.078	571.12
2027.221	575.12
2031.36	555.12
2035.495	546.12
2039.627	556.12
2043.754	534.12
2047.878	530.12
2051.998	532.12
2056.114	528.12
2060.226	529.12
2064.334	536.12
2068.439	540.12
2072.54	543.12
2076.637	545.12
2080.73	549.12
2084.82	559.12
2088.906	566.12
2092.988	557.12
2097.066	571.12
2101.14	542.12
2105.211	551.12
2109.278	547.12
2113.342	552.12
2117.401	527.12
2121.457	516.12
2125.509	519.12
2129.558	513.12
2133.602	511.12
2137.643	499.12
2141.681	502.12
2145.714	496.12
2149.744	489.12
2153.77	495.12
2157.793	478.12
2161.812	481.12
2165.827	477.12
2169.838	464.12
2173.846	454.12
2177.851	451.12
2181.851	445.12
2185.848	435.12
2189.841	435.12
2193.831	427.12
2197.817	416.12
2201.799	420.12
2205.778	422.12
2209.753	414.12
2213.725	431.12
2217.693	419.12
2221.657	420.12
2225.618	426.12
2229.575	416.12
2233.529	420.12
2237.479	414.12
2241.425	417.12
2245.368	408.12
2249.307	400.12
2253.243	399.12
2257.175	388.12
2261.104	380.12
2265.029	384.12
2268.95	379.12
2272.868	379.12
2276.783	360.12
2280.694	370.12
2284.601	365.12
2288.505	367.12
2292.405	355.12
2296.302	358.12
2300.195	343.12
2304.085	340.12
2307.971	334.12
2311.854	340.12
2315.734	339.12
2319.609	326.12
2323.482	323.12
2327.351	341.12
2331.216	368.12
2335.078	373.12
2338.937	353.12
2342.792	320.12
2346.643	317.12
2350.492	318.12
2354.336	315.12
2358.178	309.12
2362.015	313.12
2365.85	317.12
2369.681	325.12
2373.508	318.12
2377.333	319.12
2381.153	311.12
2384.971	311.12
2388.785	315.12
2392.595	306.12
2396.402	308.12
2400.206	306.12
2404.007	304.12
2407.804	290.12
2411.597	308.12
2415.388	300.12
2419.174	306.12
2422.958	296.12
2426.738	290.12
2430.515	279.12
2434.289	290.12
2438.059	287.12
2441.825	274.12
2445.589	285.12
2449.349	272.12
2453.106	273.12
2456.859	269.12
2460.61	273.12
2464.356	261.12
2468.1	264.12
2471.84	260.12
2475.577	253.12
2479.311	258.12
2483.041	249.12
2486.768	258.12
2490.492	251.12
2494.213	247.12
2497.93	250.12
2501.644	249.12
2505.355	253.12
2509.062	251.12
2512.766	248.12
2516.467	238.12
2520.165	248.12
2523.859	245.12
2527.551	242.12
2531.239	247.12
2534.923	236.12
2538.605	235.12
2542.283	224.12
2545.958	247.12
2549.63	247.12
2553.299	246.12
2556.964	245.12
2560.626	237.12
2564.285	241.12
2567.941	246.12
2571.594	246.12
2575.243	230.12
2578.89	234.12
2582.533	235.12
2586.173	226.12
2589.809	225.12
2593.443	230.12
2597.073	226.12
2600.701	222.12
2604.325	209.12
2607.946	213.12
2611.564	211.12
2615.178	206.12
2618.79	209.12
2622.398	209.12
2626.004	197.12
2629.606	196.12
2633.205	199.12
2636.801	186.12
2640.394	187.12
2643.983	191.12
2647.57	180.12
2651.153	175.12
2654.734	178.12
2658.311	175.12
2661.885	167.12
2665.456	175.12
2669.025	164.12
2672.589	167.12
2676.151	168.12
2679.71	153.12
2683.266	157.12
2686.819	153.12
2690.368	150.12
2693.915	150.12
2697.458	138.12
2700.999	137.12
2704.536	137.12
2708.071	130.12
2711.602	121.12
2715.13	122.12
2718.656	113.12
2722.178	116.12
2725.697	109.12
2729.214	115.12
2732.727	117.12
2736.237	114.12
2739.744	111.12
2743.249	111.12
2746.75	108.12
2750.248	114.12
2753.743	119.12
2757.236	116.12
2760.725	112.12
2764.211	107.12
2767.695	121.12
2771.175	113.12
2774.652	110.12
2778.127	115.12
2781.598	108.12
2785.067	104.12
2788.532	114.12
2791.995	100.12
2795.455	98.12
2798.911	105.12
2802.365	95.12
2805.816	103.12
2809.264	103.12
2812.709	95.12
2816.151	98.12
2819.59	103.12
2823.026	95.12
2826.46	99.12
2829.89	92.12
2833.318	86.12
2836.742	102.12
2840.164	98.12
2843.583	97.12
2846.999	103.12
2850.412	85.12
2853.822	86.12
2857.229	94.12
2860.634	89.12
2864.035	87.12
2867.434	87.12
2870.83	92.12
2874.223	86.12
2877.613	80.12
2881	72.12
2884.385	69.12
2887.766	71.12
2891.145	73.12
2894.521	75.12
2897.894	60.12
2901.264	62.12
2904.631	55.12
2907.996	51.12
2911.358	60.12
2914.717	56.12
2918.073	56.12
2921.426	51.12
2924.777	58.12
2928.124	45.12
2931.469	53.12
2934.811	51.12
2938.15	45.12
2941.487	47.12
2944.821	45.12
2948.152	28.12
2951.48	37.12
2954.805	37.12
2958.128	37.12
2961.447	34.12
2964.765	30.12
2968.079	30.12
2971.39	30.12
2974.699	28.12
2978.005	30.12
2981.308	33.12
2984.609	18.12
2987.907	26.12
2991.202	19.12
2994.494	36.12
2997.784	26.12
3001.07	25.12
3004.355	21.12
3007.636	24.12
3010.915	23.12
3014.191	19.12
3017.464	18.12
3020.734	19.12
3024.002	8.12
3027.267	15.12
3030.53	11.12
3033.789	11.12
3037.046	3.12
3040.301	3.12
3043.552	3.12
3046.801	3.12
3050.048	-2.88
3053.291	-0.88
3056.532	-9.88
3059.771	0.12
3063.006	-6.88
3066.239	-2.88
3069.469	-3.88
3072.697	-11.88
3075.922	-12.88
3079.144	-8.88
3082.364	-12.88
3085.581	-5.88
3088.795	-2.88
3092.007	-15.88
3095.216	-4.88
3098.423	-12.88
3101.627	-8.88
3104.828	-17.88
3108.026	-15.88
3111.222	-14.88
3114.416	-7.88
3117.607	-16.88
3120.795	-10.88
3123.98	-13.88
3127.163	-12.88
3130.344	-13.88
3133.521	-14.88
3136.696	-11.88
3139.869	-17.88
3143.039	-22.88
3146.206	-19.88
3149.371	-21.88
3152.533	-24.88
3155.693	-25.88
3158.85	-23.88
3162.005	-28.88
3165.157	-28.88
3168.306	-23.88
3171.453	-31.88
3174.597	-28.88
3177.739	-28.88
3180.878	-30.88
3184.014	-36.88
3187.149	-33.88
3190.28	-34.88
3193.409	-32.88
3196.536	-33.88
3199.659	-38.88
3202.781	-36.88
3205.9	-36.88
3209.016	-45.88
3212.13	-42.88
3215.241	-36.88
3218.35	-35.88
3221.456	-39.88
3224.56	-40.88
3227.661	-43.88
3230.76	-49.88
3233.856	-52.88
3236.95	-48.88
3240.041	-51.88
3243.13	-47.88
3246.216	-42.88
3249.3	-44.88
3252.382	-47.88
3255.46	-42.88
3258.537	-16.88
3261.611	-46.88
3264.682	-47.88
3267.751	-41.88
3270.818	-47.88
3273.882	-50.88
3276.943	-48.88
3280.002	-43.88
3283.059	-50.88
3286.113	-49.88
3289.165	-51.88
3292.214	-52.88
3295.261	-47.88
3298.306	-54.88
3301.348	-54.88
3304.387	-53.88
3307.425	-49.88
3310.459	-61.88
3313.492	-59.88
3316.521	-63.88
3319.549	-57.88
3322.574	-61.88
3325.597	-64.88
3328.617	-62.88
3331.635	-63.88
3334.65	-56.88
3337.663	-66.88
3340.674	-60.88
3343.682	-60.88
3346.688	-60.88
3349.691	-67.88
3352.692	-64.88
3355.691	-64.88
3358.687	-62.88
3361.681	-63.88
3364.673	-67.88
3367.662	-61.88
3370.649	-65.88
3373.633	-64.88
3376.615	-67.88
3379.595	-64.88
3382.572	-61.88
3385.547	-65.88
3388.52	-64.88
3391.49	-66.88
3394.458	-67.88
3397.424	-67.88
3400.387	-66.88
3403.348	-68.88
3406.307	-65.88
3409.263	-70.88
3412.217	-63.88
3415.168	-67.88
3418.118	-68.88
3421.065	-65.88
3424.009	-66.88
3426.951	-71.88
3429.891	-71.88
3432.829	-68.88
3435.764	-71.88
3438.697	-70.88
3441.628	-72.88
3444.557	-69.88
3447.483	-72.88
3450.407	-75.88
3453.328	-73.88
3456.247	-70.88
3459.164	-72.88
3462.079	-71.88
3464.991	-73.88
3467.902	-77.88
3470.809	-78.88
3473.715	-75.88
3476.618	-78.88
3479.519	-73.88
3482.418	-76.88
3485.315	-84.88
3488.209	-77.88
3491.101	-76.88
3493.99	-68.88
3496.878	-77.88
3499.763	-79.88
3502.646	-73.88
3505.527	-82.88
3508.405	-77.88
3511.281	-80.88
3514.155	-73.88
3517.027	-78.88
3519.897	-76.88
3522.764	-75.88
3525.629	-76.88
3528.492	-76.88
3531.352	-80.88
3534.211	-76.88
3537.067	-79.88
3539.921	-73.88
3542.773	-82.88
3545.622	-79.88
3548.469	-84.88
3551.315	-79.88
3554.157	-77.88
3556.998	-76.88
3559.837	-80.88
3562.673	-75.88
3565.507	-77.88
3568.339	-70.88
3571.169	-78.88
3573.996	-77.88
3576.822	-73.88
3579.645	-83.88
3582.466	-84.88
3585.285	-77.88
3588.101	-84.88
3590.916	-82.88
3593.728	-78.88
3596.538	-87.88
3599.346	-81.88
3602.152	-81.88
3604.956	-82.88
3607.757	-80.88
3610.556	-80.88
3613.354	-80.88
3616.149	-88.88
3618.942	-83.88
3621.732	-85.88
3624.521	-84.88
3627.307	-82.88
3630.092	-79.88
3632.874	-85.88
3635.654	-82.88
3638.432	-85.88
3641.208	-89.88
3643.982	-79.88
3646.753	-84.88
3649.523	-87.88
3652.29	-90.88
3655.055	-84.88
3657.818	-87.88
3660.579	-80.88
3663.338	-85.88
3666.095	-86.88
3668.849	-84.88
3671.602	-82.88
3674.352	-87.88
3677.101	-82.88
3679.847	-90.88
3682.591	-82.88
3685.333	-82.88
3688.073	-90.88
3690.811	-85.88
3693.547	-85.88
3696.281	-83.88
3699.013	-83.88
3701.742	-85.88
3704.47	-86.88
3707.195	-86.88
3709.919	-80.88
3712.64	-91.88
3715.359	-88.88
3718.076	-84.88
3720.792	-93.88
3723.505	-83.88
3726.216	-91.88
3728.925	-88.88
3731.632	-88.88
3734.336	-87.88
3737.039	-91.88
3739.74	-87.88
3742.439	-86.88
3745.136	-88.88
3747.83	-90.88
3750.523	-88.88
3753.213	-114.88
3755.902	-91.88
3758.589	-90.88
3761.273	-94.88
3763.956	-91.88
3766.636	-85.88
3769.315	-88.88
3771.991	-92.88
3774.665	-85.88
3777.338	-87.88
3780.008	-95.88
3782.677	-87.88
3785.343	-94.88
3788.007	-99.88
3790.67	-94.88
3793.33	-93.88
3795.989	-90.88
3798.645	-89.88
3801.299	-92.88
3803.952	-87.88
3806.602	-95.88
3809.251	-95.88
3811.897	-87.88
3814.542	-95.88
3817.184	-91.88
3819.825	-90.88
3822.463	-87.88
3825.1	-95.88
3827.735	-92.88
3830.367	-97.88
3832.998	-88.88
3835.627	-85.88
3838.253	-89.88
3840.878	-90.88
3843.501	-85.88
3846.122	-93.88
3848.741	-88.88
3851.358	-89.88
3853.973	-87.88
3856.586	-96.88
3859.197	-85.88
3861.806	-86.88
3864.414	-87.88
3867.019	-77.88
3869.622	-78.88
3872.224	-70.88
3874.823	-54.88
3877.421	-38.88
3880.016	-7.88
3882.61	23.12
3885.202	33.12
3887.792	13.12
3890.38	-36.88
3892.966	-58.88
3895.55	-77.88
3898.132	-85.88
3900.713	-86.88
3903.291	-88.88
3905.868	-89.88
3908.442	-90.88
3911.015	-90.88
3913.586	-91.88
3916.155	-89.88
3918.722	-90.88
3921.287	-90.88
3923.85	-92.88
3926.411	-87.88
3928.971	-92.88
3931.528	-85.88
3934.084	-91.88
3936.638	-95.88
3939.19	-89.88
3941.74	-92.88
3944.288	-93.88
3946.834	-93.88
3949.378	-90.88
3951.921	-88.88
3954.462	-90.88
3957	-89.88
3959.537	-83.88
3962.072	-83.88
3964.606	-84.88
3967.137	-85.88
3969.667	-86.88
3972.194	-91.88
3974.72	-88.88
3977.244	-92.88
3979.766	-90.88
3982.286	-88.88
3984.805	-86.88
3987.321	-89.88
3989.836	-89.88
3992.349	-88.88
3994.86	-92.88
3997.369	-87.88
3999.877	-84.88
4002.382	-86.88
4004.886	-86.88
4007.388	-79.88
4009.888	-82.88
4012.386	-81.88
4014.883	-87.88
4017.377	-85.88
4019.87	-89.88
4022.361	-87.88
4024.85	-95.88
4027.338	-85.88
4029.823	-86.88
4032.307	-88.88
4034.789	-87.88
4037.269	-86.88
4039.747	-88.88
4042.224	-90.88
4044.699	-84.88
4047.172	-86.88
4049.643	-83.88
4052.112	-89.88
4054.58	-91.88
4057.046	-87.88
4059.51	-90.88
4061.972	-86.88
4064.432	-87.88
4066.891	-91.88
4069.348	-88.88
4071.803	-90.88
4074.256	-81.88
4076.708	-91.88
4079.158	-93.88
4081.606	-90.88
4084.052	-94.88
4086.497	-94.88
4088.939	-91.88
4091.38	-90.88
4093.819	-91.88
4096.257	-92.88
4098.693	-97.88
4101.127	-95.88
4103.559	-96.88
4105.989	23.12
4108.418	25.12
4110.845	23.12
4113.27	15.12
4115.694	23.12
4118.115	24.12
4120.535	-93.88
4122.954	-85.88
4125.37	-89.88
4127.785	-90.88
4130.198	-89.88
4132.609	-92.88
4135.019	-93.88
4137.427	-92.88
4139.833	-95.88
4142.237	-95.88