File: Data/Raman/2017-08-29 - Alluminum 2/Aug 29 2017 - Aluminum 2/EC 110 5_RamanShift_1.txt
Data from EC 110 5_RamanShift_1.txt Node

Date: Tue Aug 29 12:51:07 IDT 2017
User: aro
Spectrometer: QEPB0276
Trigger mode: 0
Integration Time (sec): 3.000000E1
Scans to average: 1
Electric dark correction enabled: true
Nonlinearity correction enabled: false
Boxcar width: 0
XAxis mode: Raman Shifts
Number of Pixels in Spectrum: 1044
>>>>>Begin Spectral Data<<<<<
160.701	29.88
166.742	39.88
172.777	66.88
178.805	174.88
184.826	431.88
190.841	863.88
196.849	1367.88
202.85	1745.88
208.845	1891.88
214.833	1895.88
220.815	1938.88
226.789	1965.88
232.758	2026.88
238.719	2061.88
244.674	2090.88
250.623	2144.88
256.565	2195.88
262.5	2215.88
268.429	2281.88
274.351	2292.88
280.267	2341.88
286.176	2377.88
292.079	2425.88
297.975	2447.88
303.865	2507.88
309.748	2533.88
315.625	2542.88
321.495	2565.88
327.359	2592.88
333.217	2610.88
339.068	2626.88
344.912	2634.88
350.751	2663.88
356.583	2696.88
362.408	2704.88
368.227	2784.88
374.04	2899.88
379.847	3042.88
385.647	3125.88
391.44	3068.88
397.228	2944.88
403.009	2970.88
408.784	3191.88
414.553	3680.88
420.315	4263.88
426.071	4279.88
431.821	3666.88
437.565	3165.88
443.302	2997.88
449.033	2888.88
454.758	2853.88
460.477	2801.88
466.189	2773.88
471.896	2709.88
477.596	2678.88
483.29	2671.88
488.978	2659.88
494.66	2657.88
500.335	2521.88
506.005	2324.88
511.668	2124.88
517.325	1950.88
522.977	1793.88
528.622	1688.88
534.261	1613.88
539.894	1545.88
545.521	1521.88
551.141	1500.88
556.756	1472.88
562.365	1439.88
567.968	1432.88
573.565	1443.88
579.155	1452.88
584.74	1455.88
590.319	1437.88
595.892	1415.88
601.459	1411.88
607.02	1429.88
612.575	1398.88
618.124	1396.88
623.667	1364.88
629.204	1348.88
634.735	1401.88
640.261	1520.88
645.781	1702.88
651.294	1768.88
656.802	1632.88
662.304	1416.88
667.8	1310.88
673.29	1263.88
678.775	1243.88
684.254	1209.88
689.726	1221.88
695.193	1208.88
700.655	1191.88
706.11	1201.88
711.56	1196.88
717.004	1173.88
722.442	1188.88
727.874	1204.88
733.301	1193.88
738.722	1225.88
744.137	1257.88
749.547	1315.88
754.951	1346.88
760.349	1335.88
765.741	1295.88
771.128	1292.88
776.509	1295.88
781.885	1330.88
787.254	1365.88
792.618	1372.88
797.977	1373.88
803.33	1372.88
808.677	1355.88
814.019	1355.88
819.355	1307.88
824.686	1325.88
830.011	1324.88
835.33	1293.88
840.644	1262.88
845.952	1263.88
851.255	1217.88
856.552	1204.88
861.844	1179.88
867.13	1145.88
872.41	1154.88
877.686	1125.88
882.955	1119.88
888.219	1104.88
893.478	1102.88
898.731	1084.88
903.979	1082.88
909.221	1073.88
914.458	1080.88
919.69	1080.88
924.916	1082.88
930.136	1088.88
935.351	1083.88
940.561	1077.88
945.766	1083.88
950.965	1084.88
956.158	1081.88
961.347	1064.88
966.529	1050.88
971.707	1041.88
976.879	1041.88
982.046	1022.88
987.208	1023.88
992.364	1023.88
997.515	1031.88
1002.66	1034.88
1007.801	1054.88
1012.936	1075.88
1018.066	1066.88
1023.19	1080.88
1028.309	1091.88
1033.423	1098.88
1038.532	1106.88
1043.636	1096.88
1048.734	1111.88
1053.827	1084.88
1058.915	1086.88
1063.998	1092.88
1069.075	1088.88
1074.147	1089.88
1079.214	1090.88
1084.276	1096.88
1089.333	1092.88
1094.385	1095.88
1099.431	1065.88
1104.472	1073.88
1109.509	1056.88
1114.54	1030.88
1119.565	1009.88
1124.586	1013.88
1129.602	986.88
1134.613	1003.88
1139.618	985.88
1144.619	983.88
1149.614	1007.88
1154.604	1005.88
1159.589	1016.88
1164.57	1027.88
1169.545	1027.88
1174.515	1021.88
1179.48	998.88
1184.44	1016.88
1189.395	1011.88
1194.345	1008.88
1199.29	1001.88
1204.23	1002.88
1209.165	1019.88
1214.095	1011.88
1219.021	1015.88
1223.941	1022.88
1228.856	1033.88
1233.766	1038.88
1238.672	1007.88
1243.572	1030.88
1248.467	1008.88
1253.358	990.88
1258.244	971.88
1263.124	949.88
1268	936.88
1272.871	911.88
1277.737	903.88
1282.599	910.88
1287.455	908.88
1292.306	921.88
1297.153	933.88
1301.995	913.88
1306.832	926.88
1311.664	924.88
1316.491	921.88
1321.314	901.88
1326.132	917.88
1330.945	889.88
1335.753	873.88
1340.556	848.88
1345.354	834.88
1350.148	841.88
1354.937	840.88
1359.722	848.88
1364.501	846.88
1369.276	850.88
1374.046	859.88
1378.811	866.88
1383.572	877.88
1388.327	888.88
1393.079	879.88
1397.825	845.88
1402.567	842.88
1407.304	817.88
1412.036	814.88
1416.764	805.88
1421.487	804.88
1426.205	793.88
1430.919	785.88
1435.628	801.88
1440.333	805.88
1445.032	813.88
1449.727	822.88
1454.418	830.88
1459.104	810.88
1463.785	792.88
1468.462	784.88
1473.134	771.88
1477.802	771.88
1482.465	779.88
1487.123	776.88
1491.777	792.88
1496.426	779.88
1501.071	807.88
1505.711	826.88
1510.347	830.88
1514.978	842.88
1519.604	858.88
1524.226	858.88
1528.844	859.88
1533.457	839.88
1538.065	814.88
1542.669	809.88
1547.269	798.88
1551.864	794.88
1556.454	825.88
1561.041	841.88
1565.622	809.88
1570.199	783.88
1574.772	769.88
1579.34	773.88
1583.904	770.88
1588.464	759.88
1593.019	756.88
1597.569	750.88
1602.115	738.88
1606.657	724.88
1611.195	717.88
1615.728	707.88
1620.256	706.88
1624.78	696.88
1629.3	685.88
1633.816	681.88
1638.327	688.88
1642.834	698.88
1647.336	703.88
1651.834	697.88
1656.328	705.88
1660.817	711.88
1665.302	717.88
1669.783	690.88
1674.259	708.88
1678.732	683.88
1683.199	692.88
1687.663	686.88
1692.122	679.88
1696.577	670.88
1701.028	686.88
1705.474	687.88
1709.917	713.88
1714.355	709.88
1718.788	708.88
1723.218	709.88
1727.643	694.88
1732.064	690.88
1736.481	664.88
1740.893	643.88
1745.301	645.88
1749.705	628.88
1754.105	618.88
1758.501	606.88
1762.893	581.88
1767.28	573.88
1771.663	562.88
1776.042	574.88
1780.417	568.88
1784.787	551.88
1789.154	568.88
1793.516	582.88
1797.874	596.88
1802.228	600.88
1806.578	613.88
1810.924	616.88
1815.266	602.88
1819.603	595.88
1823.937	584.88
1828.266	576.88
1832.591	564.88
1836.913	563.88
1841.23	544.88
1845.543	543.88
1849.852	547.88
1854.156	545.88
1858.457	531.88
1862.754	537.88
1867.047	539.88
1871.335	544.88
1875.62	546.88
1879.9	548.88
1884.177	549.88
1888.449	541.88
1892.718	537.88
1896.982	538.88
1901.243	546.88
1905.499	533.88
1909.752	538.88
1914	524.88
1918.245	542.88
1922.485	548.88
1926.722	553.88
1930.954	562.88
1935.183	565.88
1939.408	576.88
1943.628	581.88
1947.845	569.88
1952.058	563.88
1956.267	567.88
1960.472	553.88
1964.673	532.88
1968.87	516.88
1973.063	530.88
1977.252	508.88
1981.438	498.88
1985.619	487.88
1989.797	475.88
1993.971	483.88
1998.14	476.88
2002.306	466.88
2006.469	465.88
2010.627	466.88
2014.781	460.88
2018.932	459.88
2023.078	455.88
2027.221	448.88
2031.36	434.88
2035.495	430.88
2039.627	423.88
2043.754	433.88
2047.878	419.88
2051.998	424.88
2056.114	426.88
2060.226	423.88
2064.334	429.88
2068.439	427.88
2072.54	437.88
2076.637	433.88
2080.73	449.88
2084.82	439.88
2088.906	455.88
2092.988	460.88
2097.066	456.88
2101.14	448.88
2105.211	451.88
2109.278	431.88
2113.342	444.88
2117.401	434.88
2121.457	428.88
2125.509	419.88
2129.558	430.88
2133.602	417.88
2137.643	404.88
2141.681	412.88
2145.714	405.88
2149.744	397.88
2153.77	399.88
2157.793	396.88
2161.812	394.88
2165.827	390.88
2169.838	378.88
2173.846	379.88
2177.851	369.88
2181.851	363.88
2185.848	367.88
2189.841	359.88
2193.831	348.88
2197.817	359.88
2201.799	341.88
2205.778	348.88
2209.753	356.88
2213.725	350.88
2217.693	341.88
2221.657	344.88
2225.618	352.88
2229.575	350.88
2233.529	354.88
2237.479	353.88
2241.425	353.88
2245.368	336.88
2249.307	345.88
2253.243	329.88
2257.175	326.88
2261.104	328.88
2265.029	329.88
2268.95	306.88
2272.868	318.88
2276.783	305.88
2280.694	314.88
2284.601	306.88
2288.505	323.88
2292.405	309.88
2296.302	305.88
2300.195	294.88
2304.085	299.88
2307.971	298.88
2311.854	292.88
2315.734	290.88
2319.609	282.88
2323.482	287.88
2327.351	307.88
2331.216	339.88
2335.078	355.88
2338.937	325.88
2342.792	287.88
2346.643	267.88
2350.492	280.88
2354.336	275.88
2358.178	282.88
2362.015	274.88
2365.85	264.88
2369.681	277.88
2373.508	288.88
2377.333	273.88
2381.153	276.88
2384.971	273.88
2388.785	277.88
2392.595	270.88
2396.402	270.88
2400.206	273.88
2404.007	273.88
2407.804	262.88
2411.597	271.88
2415.388	257.88
2419.174	256.88
2422.958	254.88
2426.738	267.88
2430.515	256.88
2434.289	253.88
2438.059	259.88
2441.825	254.88
2445.589	246.88
2449.349	244.88
2453.106	237.88
2456.859	238.88
2460.61	245.88
2464.356	229.88
2468.1	222.88
2471.84	236.88
2475.577	224.88
2479.311	230.88
2483.041	230.88
2486.768	222.88
2490.492	225.88
2494.213	229.88
2497.93	218.88
2501.644	224.88
2505.355	218.88
2509.062	218.88
2512.766	221.88
2516.467	213.88
2520.165	227.88
2523.859	221.88
2527.551	212.88
2531.239	224.88
2534.923	216.88
2538.605	215.88
2542.283	219.88
2545.958	217.88
2549.63	223.88
2553.299	218.88
2556.964	221.88
2560.626	222.88
2564.285	215.88
2567.941	227.88
2571.594	234.88
2575.243	212.88
2578.89	213.88
2582.533	218.88
2586.173	210.88
2589.809	214.88
2593.443	209.88
2597.073	202.88
2600.701	206.88
2604.325	202.88
2607.946	195.88
2611.564	205.88
2615.178	193.88
2618.79	186.88
2622.398	198.88
2626.004	186.88
2629.606	183.88
2633.205	181.88
2636.801	178.88
2640.394	181.88
2643.983	174.88
2647.57	165.88
2651.153	166.88
2654.734	165.88
2658.311	157.88
2661.885	157.88
2665.456	163.88
2669.025	152.88
2672.589	159.88
2676.151	149.88
2679.71	150.88
2683.266	155.88
2686.819	141.88
2690.368	147.88
2693.915	136.88
2697.458	135.88
2700.999	129.88
2704.536	130.88
2708.071	128.88
2711.602	121.88
2715.13	122.88
2718.656	118.88
2722.178	122.88
2725.697	117.88
2729.214	117.88
2732.727	113.88
2736.237	113.88
2739.744	117.88
2743.249	114.88
2746.75	117.88
2750.248	110.88
2753.743	123.88
2757.236	125.88
2760.725	123.88
2764.211	117.88
2767.695	125.88
2771.175	125.88
2774.652	122.88
2778.127	125.88
2781.598	115.88
2785.067	115.88
2788.532	117.88
2791.995	110.88
2795.455	108.88
2798.911	118.88
2802.365	99.88
2805.816	111.88
2809.264	100.88
2812.709	98.88
2816.151	107.88
2819.59	107.88
2823.026	106.88
2826.46	99.88
2829.89	102.88
2833.318	98.88
2836.742	108.88
2840.164	92.88
2843.583	99.88
2846.999	101.88
2850.412	93.88
2853.822	91.88
2857.229	103.88
2860.634	91.88
2864.035	96.88
2867.434	94.88
2870.83	92.88
2874.223	89.88
2877.613	78.88
2881	78.88
2884.385	78.88
2887.766	76.88
2891.145	71.88
2894.521	78.88
2897.894	67.88
2901.264	73.88
2904.631	65.88
2907.996	57.88
2911.358	61.88
2914.717	61.88
2918.073	56.88
2921.426	55.88
2924.777	56.88
2928.124	50.88
2931.469	52.88
2934.811	47.88
2938.15	46.88
2941.487	49.88
2944.821	52.88
2948.152	41.88
2951.48	47.88
2954.805	49.88
2958.128	41.88
2961.447	34.88
2964.765	34.88
2968.079	42.88
2971.39	33.88
2974.699	37.88
2978.005	41.88
2981.308	38.88
2984.609	32.88
2987.907	33.88
2991.202	36.88
2994.494	31.88
2997.784	44.88
3001.07	39.88
3004.355	38.88
3007.636	38.88
3010.915	30.88
3014.191	30.88
3017.464	27.88
3020.734	28.88
3024.002	20.88
3027.267	26.88
3030.53	24.88
3033.789	28.88
3037.046	20.88
3040.301	16.88
3043.552	13.88
3046.801	16.88
3050.048	6.88
3053.291	13.88
3056.532	15.88
3059.771	21.88
3063.006	7.88
3066.239	15.88
3069.469	17.88
3072.697	13.88
3075.922	3.88
3079.144	7.88
3082.364	12.88
3085.581	8.88
3088.795	1.88
3092.007	0.88
3095.216	0.88
3098.423	9.88
3101.627	-2.12
3104.828	2.88
3108.026	0.88
3111.222	-3.12
3114.416	6.88
3117.607	5.88
3120.795	6.88
3123.98	3.88
3127.163	-1.12
3130.344	2.88
3133.521	-4.12
3136.696	3.88
3139.869	3.88
3143.039	-8.12
3146.206	-7.12
3149.371	-5.12
3152.533	-5.12
3155.693	-7.12
3158.85	-6.12
3162.005	-7.12
3165.157	-13.12
3168.306	-2.12
3171.453	-7.12
3174.597	-11.12
3177.739	-11.12
3180.878	-14.12
3184.014	-12.12
3187.149	-21.12
3190.28	-16.12
3193.409	-15.12
3196.536	-25.12
3199.659	-17.12
3202.781	-22.12
3205.9	-21.12
3209.016	-37.12
3212.13	-32.12
3215.241	-28.12
3218.35	-28.12
3221.456	-29.12
3224.56	-23.12
3227.661	-28.12
3230.76	-35.12
3233.856	-38.12
3236.95	-31.12
3240.041	-33.12
3243.13	-34.12
3246.216	-31.12
3249.3	-33.12
3252.382	-26.12
3255.46	-24.12
3258.537	-7.12
3261.611	-31.12
3264.682	-39.12
3267.751	-32.12
3270.818	-36.12
3273.882	-35.12
3276.943	-29.12
3280.002	-29.12
3283.059	-35.12
3286.113	-33.12
3289.165	-33.12
3292.214	-33.12
3295.261	-35.12
3298.306	-38.12
3301.348	-38.12
3304.387	-39.12
3307.425	-39.12
3310.459	-44.12
3313.492	-42.12
3316.521	-51.12
3319.549	-40.12
3322.574	-50.12
3325.597	-47.12
3328.617	-47.12
3331.635	-50.12
3334.65	-45.12
3337.663	-52.12
3340.674	-38.12
3343.682	-47.12
3346.688	-50.12
3349.691	-45.12
3352.692	-50.12
3355.691	-46.12
3358.687	-47.12
3361.681	-48.12
3364.673	-54.12
3367.662	-47.12
3370.649	-47.12
3373.633	-50.12
3376.615	-53.12
3379.595	-46.12
3382.572	-47.12
3385.547	-52.12
3388.52	-47.12
3391.49	-50.12
3394.458	-54.12
3397.424	-51.12
3400.387	-54.12
3403.348	-47.12
3406.307	-53.12
3409.263	-54.12
3412.217	-54.12
3415.168	-56.12
3418.118	-54.12
3421.065	-56.12
3424.009	-53.12
3426.951	-53.12
3429.891	-52.12
3432.829	-55.12
3435.764	-57.12
3438.697	-56.12
3441.628	-56.12
3444.557	-52.12
3447.483	-59.12
3450.407	-62.12
3453.328	-53.12
3456.247	-62.12
3459.164	-61.12
3462.079	-59.12
3464.991	-60.12
3467.902	-61.12
3470.809	-61.12
3473.715	-66.12
3476.618	-61.12
3479.519	-56.12
3482.418	-59.12
3485.315	-65.12
3488.209	-65.12
3491.101	-58.12
3493.99	-58.12
3496.878	-60.12
3499.763	-65.12
3502.646	-58.12
3505.527	-72.12
3508.405	-66.12
3511.281	-69.12
3514.155	-61.12
3517.027	-59.12
3519.897	-60.12
3522.764	-57.12
3525.629	-64.12
3528.492	-57.12
3531.352	-62.12
3534.211	-63.12
3537.067	-63.12
3539.921	-66.12
3542.773	-64.12
3545.622	-64.12
3548.469	-69.12
3551.315	-60.12
3554.157	-61.12
3556.998	-64.12
3559.837	-62.12
3562.673	-62.12
3565.507	-69.12
3568.339	-60.12
3571.169	-67.12
3573.996	-66.12
3576.822	-59.12
3579.645	-68.12
3582.466	-60.12
3585.285	-68.12
3588.101	-71.12
3590.916	-70.12
3593.728	-61.12
3596.538	-73.12
3599.346	-71.12
3602.152	-66.12
3604.956	-67.12
3607.757	-69.12
3610.556	-71.12
3613.354	-68.12
3616.149	-72.12
3618.942	-71.12
3621.732	-71.12
3624.521	-71.12
3627.307	-70.12
3630.092	-69.12
3632.874	-69.12
3635.654	-67.12
3638.432	-65.12
3641.208	-74.12
3643.982	-69.12
3646.753	-69.12
3649.523	-68.12
3652.29	-70.12
3655.055	-72.12
3657.818	-71.12
3660.579	-71.12
3663.338	-70.12
3666.095	-70.12
3668.849	-71.12
3671.602	-71.12
3674.352	-71.12
3677.101	-65.12
3679.847	-74.12
3682.591	-69.12
3685.333	-70.12
3688.073	-74.12
3690.811	-72.12
3693.547	-69.12
3696.281	-71.12
3699.013	-73.12
3701.742	-72.12
3704.47	-75.12
3707.195	-72.12
3709.919	-72.12
3712.64	-70.12
3715.359	-74.12
3718.076	-71.12
3720.792	-76.12
3723.505	-66.12
3726.216	-77.12
3728.925	-67.12
3731.632	-74.12
3734.336	-73.12
3737.039	-76.12
3739.74	-70.12
3742.439	-71.12
3745.136	-78.12
3747.83	-74.12
3750.523	-73.12
3753.213	-96.12
3755.902	-74.12
3758.589	-77.12
3761.273	-79.12
3763.956	-78.12
3766.636	-73.12
3769.315	-76.12
3771.991	-72.12
3774.665	-69.12
3777.338	-69.12
3780.008	-83.12
3782.677	-77.12
3785.343	-76.12
3788.007	-83.12
3790.67	-79.12
3793.33	-77.12
3795.989	-73.12
3798.645	-80.12
3801.299	-75.12
3803.952	-80.12
3806.602	-77.12
3809.251	-81.12
3811.897	-77.12
3814.542	-79.12
3817.184	-73.12
3819.825	-79.12
3822.463	-76.12
3825.1	-78.12
3827.735	-70.12
3830.367	-78.12
3832.998	-72.12
3835.627	-71.12
3838.253	-76.12
3840.878	-73.12
3843.501	-73.12
3846.122	-77.12
3848.741	-72.12
3851.358	-72.12
3853.973	-70.12
3856.586	-76.12
3859.197	-69.12
3861.806	-77.12
3864.414	-71.12
3867.019	-68.12
3869.622	-63.12
3872.224	-53.12
3874.823	-42.12
3877.421	-30.12
3880.016	-3.12
3882.61	22.88
3885.202	35.88
3887.792	19.88
3890.38	-23.12
3892.966	-47.12
3895.55	-60.12
3898.132	-71.12
3900.713	-68.12
3903.291	-77.12
3905.868	-77.12
3908.442	-75.12
3911.015	-73.12
3913.586	-77.12
3916.155	-78.12
3918.722	-76.12
3921.287	-74.12
3923.85	-79.12
3926.411	-72.12
3928.971	-74.12
3931.528	-75.12
3934.084	-82.12
3936.638	-77.12
3939.19	-76.12
3941.74	-78.12
3944.288	-78.12
3946.834	-77.12
3949.378	-72.12
3951.921	-71.12
3954.462	-77.12
3957	-74.12
3959.537	-73.12
3962.072	-66.12
3964.606	-77.12
3967.137	-74.12
3969.667	-78.12
3972.194	-77.12
3974.72	-74.12
3977.244	-70.12
3979.766	-78.12
3982.286	-74.12
3984.805	-77.12
3987.321	-74.12
3989.836	-76.12
3992.349	-73.12
3994.86	-77.12
3997.369	-77.12
3999.877	-69.12
4002.382	-70.12
4004.886	-74.12
4007.388	-74.12
4009.888	-73.12
4012.386	-75.12
4014.883	-76.12
4017.377	-70.12
4019.87	-73.12
4022.361	-75.12
4024.85	-78.12
4027.338	-68.12
4029.823	-78.12
4032.307	-74.12
4034.789	-75.12
4037.269	-76.12
4039.747	-78.12
4042.224	-76.12
4044.699	-76.12
4047.172	-75.12
4049.643	-73.12
4052.112	-74.12
4054.58	-80.12
4057.046	-73.12
4059.51	-78.12
4061.972	-74.12
4064.432	-72.12
4066.891	-79.12
4069.348	-72.12
4071.803	-73.12
4074.256	-74.12
4076.708	-78.12
4079.158	-78.12
4081.606	-72.12
4084.052	-78.12
4086.497	-79.12
4088.939	-81.12
4091.38	-75.12
4093.819	-79.12
4096.257	-78.12
4098.693	-83.12
4101.127	-83.12
4103.559	-80.12
4105.989	42.88
4108.418	35.88
4110.845	31.88
4113.27	24.88
4115.694	26.88
4118.115	21.88
4120.535	-76.12
4122.954	-74.12
4125.37	-78.12
4127.785	-79.12
4130.198	-75.12
4132.609	-73.12
4135.019	-79.12
4137.427	-74.12
4139.833	-77.12
4142.237	-81.12