File: Data/Raman/2017-08-29 - Alluminum 2/Aug 29 2017 - Aluminum 2/EC 110 3_RamanShift_3.txt
Data from EC 110 3_RamanShift_3.txt Node

Date: Tue Aug 29 12:34:07 IDT 2017
User: aro
Spectrometer: QEPB0276
Trigger mode: 0
Integration Time (sec): 3.000000E1
Scans to average: 1
Electric dark correction enabled: true
Nonlinearity correction enabled: false
Boxcar width: 0
XAxis mode: Raman Shifts
Number of Pixels in Spectrum: 1044
>>>>>Begin Spectral Data<<<<<
160.701	28.25
166.742	38.25
172.777	73.25
178.805	189.25
184.826	453.25
190.841	901.25
196.849	1424.25
202.85	1814.25
208.845	1966.25
214.833	1970.25
220.815	1988.25
226.789	2019.25
232.758	2073.25
238.719	2100.25
244.674	2150.25
250.623	2152.25
256.565	2176.25
262.5	2208.25
268.429	2235.25
274.351	2278.25
280.267	2316.25
286.176	2362.25
292.079	2374.25
297.975	2432.25
303.865	2469.25
309.748	2509.25
315.625	2514.25
321.495	2537.25
327.359	2590.25
333.217	2578.25
339.068	2612.25
344.912	2646.25
350.751	2675.25
356.583	2689.25
362.408	2735.25
368.227	2823.25
374.04	2929.25
379.847	3123.25
385.647	3213.25
391.44	3116.25
397.228	2980.25
403.009	3010.25
408.784	3256.25
414.553	3886.25
420.315	4539.25
426.071	4565.25
431.821	3830.25
437.565	3236.25
443.302	3046.25
449.033	2952.25
454.758	2894.25
460.477	2815.25
466.189	2800.25
471.896	2698.25
477.596	2701.25
483.29	2669.25
488.978	2675.25
494.66	2603.25
500.335	2486.25
506.005	2292.25
511.668	2069.25
517.325	1856.25
522.977	1692.25
528.622	1574.25
534.261	1499.25
539.894	1442.25
545.521	1389.25
551.141	1350.25
556.756	1350.25
562.365	1312.25
567.968	1302.25
573.565	1291.25
579.155	1304.25
584.74	1305.25
590.319	1290.25
595.892	1262.25
601.459	1280.25
607.02	1296.25
612.575	1282.25
618.124	1237.25
623.667	1224.25
629.204	1214.25
634.735	1266.25
640.261	1437.25
645.781	1633.25
651.294	1728.25
656.802	1541.25
662.304	1282.25
667.8	1156.25
673.29	1111.25
678.775	1080.25
684.254	1052.25
689.726	1068.25
695.193	1058.25
700.655	1036.25
706.11	1028.25
711.56	1038.25
717.004	1011.25
722.442	1038.25
727.874	1032.25
733.301	1044.25
738.722	1050.25
744.137	1111.25
749.547	1158.25
754.951	1197.25
760.349	1185.25
765.741	1147.25
771.128	1126.25
776.509	1139.25
781.885	1169.25
787.254	1204.25
792.618	1224.25
797.977	1229.25
803.33	1214.25
808.677	1207.25
814.019	1200.25
819.355	1173.25
824.686	1155.25
830.011	1143.25
835.33	1126.25
840.644	1101.25
845.952	1080.25
851.255	1044.25
856.552	1023.25
861.844	988.25
867.13	977.25
872.41	964.25
877.686	952.25
882.955	935.25
888.219	927.25
893.478	907.25
898.731	899.25
903.979	907.25
909.221	883.25
914.458	880.25
919.69	874.25
924.916	888.25
930.136	894.25
935.351	884.25
940.561	885.25
945.766	876.25
950.965	888.25
956.158	876.25
961.347	869.25
966.529	856.25
971.707	854.25
976.879	841.25
982.046	844.25
987.208	839.25
992.364	836.25
997.515	839.25
1002.66	848.25
1007.801	858.25
1012.936	881.25
1018.066	881.25
1023.19	890.25
1028.309	892.25
1033.423	896.25
1038.532	906.25
1043.636	918.25
1048.734	913.25
1053.827	913.25
1058.915	900.25
1063.998	904.25
1069.075	900.25
1074.147	893.25
1079.214	894.25
1084.276	907.25
1089.333	896.25
1094.385	884.25
1099.431	882.25
1104.472	871.25
1109.509	845.25
1114.54	850.25
1119.565	839.25
1124.586	815.25
1129.602	803.25
1134.613	805.25
1139.618	802.25
1144.619	799.25
1149.614	806.25
1154.604	809.25
1159.589	822.25
1164.57	818.25
1169.545	839.25
1174.515	836.25
1179.48	825.25
1184.44	824.25
1189.395	816.25
1194.345	828.25
1199.29	815.25
1204.23	818.25
1209.165	807.25
1214.095	829.25
1219.021	834.25
1223.941	825.25
1228.856	838.25
1233.766	830.25
1238.672	827.25
1243.572	816.25
1248.467	813.25
1253.358	801.25
1258.244	777.25
1263.124	765.25
1268	749.25
1272.871	733.25
1277.737	729.25
1282.599	724.25
1287.455	717.25
1292.306	730.25
1297.153	743.25
1301.995	750.25
1306.832	754.25
1311.664	749.25
1316.491	736.25
1321.314	742.25
1326.132	732.25
1330.945	729.25
1335.753	725.25
1340.556	714.25
1345.354	709.25
1350.148	694.25
1354.937	689.25
1359.722	702.25
1364.501	700.25
1369.276	694.25
1374.046	689.25
1378.811	685.25
1383.572	689.25
1388.327	684.25
1393.079	667.25
1397.825	673.25
1402.567	659.25
1407.304	654.25
1412.036	647.25
1416.764	645.25
1421.487	641.25
1426.205	635.25
1430.919	648.25
1435.628	652.25
1440.333	658.25
1445.032	654.25
1449.727	653.25
1454.418	661.25
1459.104	656.25
1463.785	644.25
1468.462	646.25
1473.134	647.25
1477.802	626.25
1482.465	633.25
1487.123	640.25
1491.777	635.25
1496.426	647.25
1501.071	656.25
1505.711	675.25
1510.347	675.25
1514.978	683.25
1519.604	683.25
1524.226	670.25
1528.844	675.25
1533.457	660.25
1538.065	665.25
1542.669	646.25
1547.269	627.25
1551.864	631.25
1556.454	633.25
1561.041	646.25
1565.622	624.25
1570.199	607.25
1574.772	598.25
1579.34	605.25
1583.904	594.25
1588.464	599.25
1593.019	603.25
1597.569	594.25
1602.115	591.25
1606.657	571.25
1611.195	559.25
1615.728	555.25
1620.256	568.25
1624.78	558.25
1629.3	561.25
1633.816	553.25
1638.327	554.25
1642.834	573.25
1647.336	559.25
1651.834	569.25
1656.328	564.25
1660.817	576.25
1665.302	577.25
1669.783	568.25
1674.259	577.25
1678.732	568.25
1683.199	574.25
1687.663	566.25
1692.122	557.25
1696.577	549.25
1701.028	564.25
1705.474	558.25
1709.917	569.25
1714.355	554.25
1718.788	549.25
1723.218	552.25
1727.643	533.25
1732.064	529.25
1736.481	518.25
1740.893	512.25
1745.301	503.25
1749.705	481.25
1754.105	484.25
1758.501	477.25
1762.893	474.25
1767.28	465.25
1771.663	458.25
1776.042	453.25
1780.417	456.25
1784.787	463.25
1789.154	468.25
1793.516	463.25
1797.874	475.25
1802.228	471.25
1806.578	473.25
1810.924	473.25
1815.266	468.25
1819.603	440.25
1823.937	446.25
1828.266	423.25
1832.591	432.25
1836.913	419.25
1841.23	423.25
1845.543	414.25
1849.852	424.25
1854.156	413.25
1858.457	416.25
1862.754	417.25
1867.047	428.25
1871.335	418.25
1875.62	418.25
1879.9	431.25
1884.177	421.25
1888.449	426.25
1892.718	432.25
1896.982	421.25
1901.243	418.25
1905.499	412.25
1909.752	419.25
1914	421.25
1918.245	426.25
1922.485	439.25
1926.722	422.25
1930.954	435.25
1935.183	444.25
1939.408	448.25
1943.628	438.25
1947.845	433.25
1952.058	430.25
1956.267	418.25
1960.472	417.25
1964.673	399.25
1968.87	393.25
1973.063	394.25
1977.252	377.25
1981.438	371.25
1985.619	367.25
1989.797	358.25
1993.971	355.25
1998.14	358.25
2002.306	357.25
2006.469	355.25
2010.627	354.25
2014.781	354.25
2018.932	352.25
2023.078	349.25
2027.221	341.25
2031.36	336.25
2035.495	330.25
2039.627	331.25
2043.754	324.25
2047.878	327.25
2051.998	319.25
2056.114	325.25
2060.226	327.25
2064.334	325.25
2068.439	336.25
2072.54	320.25
2076.637	336.25
2080.73	334.25
2084.82	336.25
2088.906	341.25
2092.988	346.25
2097.066	350.25
2101.14	348.25
2105.211	332.25
2109.278	331.25
2113.342	329.25
2117.401	331.25
2121.457	320.25
2125.509	321.25
2129.558	304.25
2133.602	309.25
2137.643	297.25
2141.681	298.25
2145.714	304.25
2149.744	284.25
2153.77	295.25
2157.793	290.25
2161.812	288.25
2165.827	274.25
2169.838	271.25
2173.846	272.25
2177.851	265.25
2181.851	265.25
2185.848	258.25
2189.841	266.25
2193.831	253.25
2197.817	254.25
2201.799	260.25
2205.778	257.25
2209.753	246.25
2213.725	258.25
2217.693	255.25
2221.657	256.25
2225.618	252.25
2229.575	256.25
2233.529	255.25
2237.479	243.25
2241.425	246.25
2245.368	254.25
2249.307	240.25
2253.243	228.25
2257.175	233.25
2261.104	234.25
2265.029	236.25
2268.95	227.25
2272.868	227.25
2276.783	221.25
2280.694	223.25
2284.601	208.25
2288.505	227.25
2292.405	216.25
2296.302	211.25
2300.195	206.25
2304.085	212.25
2307.971	197.25
2311.854	203.25
2315.734	195.25
2319.609	192.25
2323.482	200.25
2327.351	210.25
2331.216	235.25
2335.078	236.25
2338.937	211.25
2342.792	190.25
2346.643	187.25
2350.492	183.25
2354.336	194.25
2358.178	188.25
2362.015	187.25
2365.85	178.25
2369.681	187.25
2373.508	193.25
2377.333	188.25
2381.153	181.25
2384.971	193.25
2388.785	189.25
2392.595	180.25
2396.402	188.25
2400.206	186.25
2404.007	183.25
2407.804	186.25
2411.597	187.25
2415.388	175.25
2419.174	174.25
2422.958	176.25
2426.738	177.25
2430.515	176.25
2434.289	178.25
2438.059	176.25
2441.825	168.25
2445.589	166.25
2449.349	165.25
2453.106	167.25
2456.859	169.25
2460.61	165.25
2464.356	152.25
2468.1	150.25
2471.84	151.25
2475.577	161.25
2479.311	153.25
2483.041	153.25
2486.768	146.25
2490.492	148.25
2494.213	150.25
2497.93	151.25
2501.644	150.25
2505.355	147.25
2509.062	147.25
2512.766	148.25
2516.467	150.25
2520.165	148.25
2523.859	146.25
2527.551	146.25
2531.239	146.25
2534.923	140.25
2538.605	146.25
2542.283	141.25
2545.958	147.25
2549.63	137.25
2553.299	147.25
2556.964	140.25
2560.626	137.25
2564.285	134.25
2567.941	142.25
2571.594	143.25
2575.243	130.25
2578.89	133.25
2582.533	138.25
2586.173	141.25
2589.809	133.25
2593.443	134.25
2597.073	127.25
2600.701	130.25
2604.325	128.25
2607.946	131.25
2611.564	127.25
2615.178	121.25
2618.79	122.25
2622.398	112.25
2626.004	111.25
2629.606	116.25
2633.205	118.25
2636.801	112.25
2640.394	114.25
2643.983	108.25
2647.57	105.25
2651.153	100.25
2654.734	95.25
2658.311	103.25
2661.885	94.25
2665.456	98.25
2669.025	91.25
2672.589	92.25
2676.151	85.25
2679.71	80.25
2683.266	88.25
2686.819	81.25
2690.368	84.25
2693.915	76.25
2697.458	80.25
2700.999	70.25
2704.536	70.25
2708.071	74.25
2711.602	64.25
2715.13	68.25
2718.656	66.25
2722.178	64.25
2725.697	61.25
2729.214	62.25
2732.727	70.25
2736.237	69.25
2739.744	63.25
2743.249	72.25
2746.75	69.25
2750.248	64.25
2753.743	60.25
2757.236	68.25
2760.725	68.25
2764.211	58.25
2767.695	68.25
2771.175	55.25
2774.652	58.25
2778.127	64.25
2781.598	53.25
2785.067	47.25
2788.532	58.25
2791.995	54.25
2795.455	57.25
2798.911	65.25
2802.365	47.25
2805.816	55.25
2809.264	45.25
2812.709	49.25
2816.151	53.25
2819.59	55.25
2823.026	56.25
2826.46	49.25
2829.89	50.25
2833.318	48.25
2836.742	55.25
2840.164	49.25
2843.583	46.25
2846.999	49.25
2850.412	47.25
2853.822	47.25
2857.229	53.25
2860.634	45.25
2864.035	39.25
2867.434	49.25
2870.83	47.25
2874.223	40.25
2877.613	38.25
2881	36.25
2884.385	34.25
2887.766	32.25
2891.145	31.25
2894.521	27.25
2897.894	25.25
2901.264	28.25
2904.631	27.25
2907.996	20.25
2911.358	28.25
2914.717	26.25
2918.073	20.25
2921.426	22.25
2924.777	18.25
2928.124	21.25
2931.469	13.25
2934.811	18.25
2938.15	16.25
2941.487	15.25
2944.821	13.25
2948.152	4.25
2951.48	10.25
2954.805	11.25
2958.128	11.25
2961.447	2.25
2964.765	2.25
2968.079	5.25
2971.39	2.25
2974.699	9.25
2978.005	5.25
2981.308	2.25
2984.609	-3.75
2987.907	5.25
2991.202	8.25
2994.494	8.25
2997.784	3.25
3001.07	2.25
3004.355	3.25
3007.636	3.25
3010.915	-3.75
3014.191	-0.75
3017.464	-4.75
3020.734	6.25
3024.002	-8.75
3027.267	-7.75
3030.53	-11.75
3033.789	-4.75
3037.046	-11.75
3040.301	-10.75
3043.552	-17.75
3046.801	-12.75
3050.048	-13.75
3053.291	-15.75
3056.532	-15.75
3059.771	-9.75
3063.006	-23.75
3066.239	-14.75
3069.469	-14.75
3072.697	-25.75
3075.922	-25.75
3079.144	-13.75
3082.364	-21.75
3085.581	-22.75
3088.795	-22.75
3092.007	-24.75
3095.216	-22.75
3098.423	-26.75
3101.627	-19.75
3104.828	-25.75
3108.026	-24.75
3111.222	-25.75
3114.416	-24.75
3117.607	-20.75
3120.795	-20.75
3123.98	-26.75
3127.163	-31.75
3130.344	-26.75
3133.521	-30.75
3136.696	-24.75
3139.869	-22.75
3143.039	-28.75
3146.206	-32.75
3149.371	-29.75
3152.533	-29.75
3155.693	-31.75
3158.85	-29.75
3162.005	-33.75
3165.157	-34.75
3168.306	-28.75
3171.453	-32.75
3174.597	-32.75
3177.739	-36.75
3180.878	-33.75
3184.014	-37.75
3187.149	-33.75
3190.28	-40.75
3193.409	-32.75
3196.536	-42.75
3199.659	-35.75
3202.781	-45.75
3205.9	-37.75
3209.016	-52.75
3212.13	-42.75
3215.241	-42.75
3218.35	-39.75
3221.456	-45.75
3224.56	-37.75
3227.661	-47.75
3230.76	-49.75
3233.856	-50.75
3236.95	-48.75
3240.041	-46.75
3243.13	-45.75
3246.216	-42.75
3249.3	-46.75
3252.382	-43.75
3255.46	-44.75
3258.537	-16.75
3261.611	-47.75
3264.682	-43.75
3267.751	-44.75
3270.818	-56.75
3273.882	-47.75
3276.943	-51.75
3280.002	-46.75
3283.059	-49.75
3286.113	-52.75
3289.165	-50.75
3292.214	-52.75
3295.261	-46.75
3298.306	-49.75
3301.348	-52.75
3304.387	-51.75
3307.425	-56.75
3310.459	-50.75
3313.492	-52.75
3316.521	-59.75
3319.549	-50.75
3322.574	-57.75
3325.597	-63.75
3328.617	-54.75
3331.635	-63.75
3334.65	-56.75
3337.663	-63.75
3340.674	-53.75
3343.682	-60.75
3346.688	-59.75
3349.691	-63.75
3352.692	-66.75
3355.691	-63.75
3358.687	-62.75
3361.681	-58.75
3364.673	-64.75
3367.662	-59.75
3370.649	-63.75
3373.633	-59.75
3376.615	-59.75
3379.595	-68.75
3382.572	-61.75
3385.547	-59.75
3388.52	-53.75
3391.49	-62.75
3394.458	-68.75
3397.424	-61.75
3400.387	-59.75
3403.348	-62.75
3406.307	-54.75
3409.263	-62.75
3412.217	-60.75
3415.168	-60.75
3418.118	-64.75
3421.065	-64.75
3424.009	-57.75
3426.951	-59.75
3429.891	-65.75
3432.829	-60.75
3435.764	-62.75
3438.697	-64.75
3441.628	-62.75
3444.557	-60.75
3447.483	-62.75
3450.407	-67.75
3453.328	-60.75
3456.247	-63.75
3459.164	-61.75
3462.079	-67.75
3464.991	-66.75
3467.902	-70.75
3470.809	-67.75
3473.715	-68.75
3476.618	-63.75
3479.519	-64.75
3482.418	-65.75
3485.315	-67.75
3488.209	-70.75
3491.101	-65.75
3493.99	-70.75
3496.878	-70.75
3499.763	-69.75
3502.646	-66.75
3505.527	-77.75
3508.405	-71.75
3511.281	-74.75
3514.155	-64.75
3517.027	-68.75
3519.897	-69.75
3522.764	-64.75
3525.629	-76.75
3528.492	-69.75
3531.352	-68.75
3534.211	-69.75
3537.067	-72.75
3539.921	-71.75
3542.773	-70.75
3545.622	-70.75
3548.469	-74.75
3551.315	-70.75
3554.157	-70.75
3556.998	-76.75
3559.837	-67.75
3562.673	-68.75
3565.507	-76.75
3568.339	-67.75
3571.169	-75.75
3573.996	-72.75
3576.822	-71.75
3579.645	-76.75
3582.466	-72.75
3585.285	-77.75
3588.101	-76.75
3590.916	-77.75
3593.728	-70.75
3596.538	-81.75
3599.346	-76.75
3602.152	-74.75
3604.956	-74.75
3607.757	-82.75
3610.556	-76.75
3613.354	-74.75
3616.149	-82.75
3618.942	-76.75
3621.732	-80.75
3624.521	-75.75
3627.307	-77.75
3630.092	-80.75
3632.874	-81.75
3635.654	-72.75
3638.432	-71.75
3641.208	-82.75
3643.982	-74.75
3646.753	-74.75
3649.523	-79.75
3652.29	-76.75
3655.055	-79.75
3657.818	-75.75
3660.579	-79.75
3663.338	-79.75
3666.095	-76.75
3668.849	-75.75
3671.602	-76.75
3674.352	-73.75
3677.101	-74.75
3679.847	-76.75
3682.591	-81.75
3685.333	-73.75
3688.073	-80.75
3690.811	-80.75
3693.547	-73.75
3696.281	-75.75
3699.013	-74.75
3701.742	-75.75
3704.47	-80.75
3707.195	-72.75
3709.919	-72.75
3712.64	-80.75
3715.359	-70.75
3718.076	-71.75
3720.792	-75.75
3723.505	-75.75
3726.216	-81.75
3728.925	-77.75
3731.632	-75.75
3734.336	-75.75
3737.039	-77.75
3739.74	-75.75
3742.439	-76.75
3745.136	-75.75
3747.83	-80.75
3750.523	-75.75
3753.213	-103.75
3755.902	-81.75
3758.589	-82.75
3761.273	-82.75
3763.956	-75.75
3766.636	-76.75
3769.315	-80.75
3771.991	-77.75
3774.665	-72.75
3777.338	-77.75
3780.008	-90.75
3782.677	-76.75
3785.343	-82.75
3788.007	-82.75
3790.67	-75.75
3793.33	-73.75
3795.989	-74.75
3798.645	-82.75
3801.299	-77.75
3803.952	-82.75
3806.602	-83.75
3809.251	-78.75
3811.897	-82.75
3814.542	-77.75
3817.184	-79.75
3819.825	-80.75
3822.463	-77.75
3825.1	-81.75
3827.735	-77.75
3830.367	-83.75
3832.998	-74.75
3835.627	-70.75
3838.253	-77.75
3840.878	-76.75
3843.501	-74.75
3846.122	-80.75
3848.741	-76.75
3851.358	-80.75
3853.973	-75.75
3856.586	-81.75
3859.197	-77.75
3861.806	-78.75
3864.414	-75.75
3867.019	-71.75
3869.622	-72.75
3872.224	-57.75
3874.823	-39.75
3877.421	-25.75
3880.016	18.25
3882.61	42.25
3885.202	53.25
3887.792	19.25
3890.38	-24.75
3892.966	-49.75
3895.55	-66.75
3898.132	-80.75
3900.713	-79.75
3903.291	-79.75
3905.868	-85.75
3908.442	-78.75
3911.015	-82.75
3913.586	-82.75
3916.155	-80.75
3918.722	-80.75
3921.287	-84.75
3923.85	-84.75
3926.411	-80.75
3928.971	-83.75
3931.528	-82.75
3934.084	-88.75
3936.638	-85.75
3939.19	-86.75
3941.74	-82.75
3944.288	-80.75
3946.834	-85.75
3949.378	-83.75
3951.921	-78.75
3954.462	-80.75
3957	-81.75
3959.537	-82.75
3962.072	-73.75
3964.606	-77.75
3967.137	-79.75
3969.667	-80.75
3972.194	-81.75
3974.72	-81.75
3977.244	-78.75
3979.766	-82.75
3982.286	-82.75
3984.805	-81.75
3987.321	-76.75
3989.836	-78.75
3992.349	-73.75
3994.86	-79.75
3997.369	-80.75
3999.877	-72.75
4002.382	-76.75
4004.886	-79.75
4007.388	-71.75
4009.888	-79.75
4012.386	-77.75
4014.883	-80.75
4017.377	-78.75
4019.87	-78.75
4022.361	-81.75
4024.85	-81.75
4027.338	-75.75
4029.823	-77.75
4032.307	-77.75
4034.789	-78.75
4037.269	-81.75
4039.747	-78.75
4042.224	-77.75
4044.699	-74.75
4047.172	-77.75
4049.643	-76.75
4052.112	-77.75
4054.58	-80.75
4057.046	-80.75
4059.51	-77.75
4061.972	-74.75
4064.432	-72.75
4066.891	-79.75
4069.348	-70.75
4071.803	-76.75
4074.256	-72.75
4076.708	-79.75
4079.158	-80.75
4081.606	-80.75
4084.052	-79.75
4086.497	-81.75
4088.939	-82.75
4091.38	-79.75
4093.819	-80.75
4096.257	-82.75
4098.693	-82.75
4101.127	-82.75
4103.559	-83.75
4105.989	43.25
4108.418	35.25
4110.845	34.25
4113.27	24.25
4115.694	28.25
4118.115	28.25
4120.535	-76.75
4122.954	-76.75
4125.37	-77.75
4127.785	-83.75
4130.198	-81.75
4132.609	-77.75
4135.019	-80.75
4137.427	-80.75
4139.833	-81.75
4142.237	-85.75