File: Data/Raman/2017-08-29 - Alluminum 2/Aug 29 2017 - Aluminum 2/EC 12 1_RamanShift_3.txt
Data from EC 12 1_RamanShift_3.txt Node

Date: Tue Aug 29 12:13:37 IDT 2017
User: aro
Spectrometer: QEPB0276
Trigger mode: 0
Integration Time (sec): 3.000000E1
Scans to average: 1
Electric dark correction enabled: true
Nonlinearity correction enabled: false
Boxcar width: 0
XAxis mode: Raman Shifts
Number of Pixels in Spectrum: 1044
>>>>>Begin Spectral Data<<<<<
160.701	29.38
166.742	45.38
172.777	91.38
178.805	238.38
184.826	585.38
190.841	1158.38
196.849	1856.38
202.85	2397.38
208.845	2608.38
214.833	2628.38
220.815	2697.38
226.789	2741.38
232.758	2831.38
238.719	2853.38
244.674	2933.38
250.623	2958.38
256.565	2988.38
262.5	3034.38
268.429	3092.38
274.351	3116.38
280.267	3138.38
286.176	3203.38
292.079	3245.38
297.975	3297.38
303.865	3328.38
309.748	3383.38
315.625	3379.38
321.495	3388.38
327.359	3416.38
333.217	3460.38
339.068	3472.38
344.912	3489.38
350.751	3525.38
356.583	3521.38
362.408	3575.38
368.227	3604.38
374.04	3730.38
379.847	3885.38
385.647	3991.38
391.44	3920.38
397.228	3803.38
403.009	3814.38
408.784	4031.38
414.553	4574.38
420.315	5199.38
426.071	5231.38
431.821	4560.38
437.565	4019.38
443.302	3844.38
449.033	3736.38
454.758	3684.38
460.477	3656.38
466.189	3582.38
471.896	3523.38
477.596	3481.38
483.29	3461.38
488.978	3489.38
494.66	3422.38
500.335	3319.38
506.005	3115.38
511.668	2896.38
517.325	2707.38
522.977	2562.38
528.622	2445.38
534.261	2367.38
539.894	2311.38
545.521	2262.38
551.141	2230.38
556.756	2214.38
562.365	2188.38
567.968	2148.38
573.565	2158.38
579.155	2182.38
584.74	2171.38
590.319	2147.38
595.892	2135.38
601.459	2137.38
607.02	2119.38
612.575	2118.38
618.124	2105.38
623.667	2047.38
629.204	2043.38
634.735	2093.38
640.261	2217.38
645.781	2425.38
651.294	2490.38
656.802	2340.38
662.304	2119.38
667.8	1995.38
673.29	1940.38
678.775	1895.38
684.254	1876.38
689.726	1889.38
695.193	1862.38
700.655	1863.38
706.11	1841.38
711.56	1834.38
717.004	1819.38
722.442	1827.38
727.874	1824.38
733.301	1837.38
738.722	1826.38
744.137	1890.38
749.547	1945.38
754.951	1964.38
760.349	1951.38
765.741	1907.38
771.128	1890.38
776.509	1908.38
781.885	1949.38
787.254	1976.38
792.618	1977.38
797.977	1967.38
803.33	1967.38
808.677	1959.38
814.019	1928.38
819.355	1908.38
824.686	1886.38
830.011	1861.38
835.33	1864.38
840.644	1825.38
845.952	1812.38
851.255	1796.38
856.552	1772.38
861.844	1725.38
867.13	1730.38
872.41	1708.38
877.686	1683.38
882.955	1655.38
888.219	1657.38
893.478	1651.38
898.731	1626.38
903.979	1609.38
909.221	1603.38
914.458	1603.38
919.69	1589.38
924.916	1604.38
930.136	1619.38
935.351	1606.38
940.561	1616.38
945.766	1594.38
950.965	1604.38
956.158	1583.38
961.347	1564.38
966.529	1562.38
971.707	1537.38
976.879	1526.38
982.046	1503.38
987.208	1515.38
992.364	1501.38
997.515	1518.38
1002.66	1526.38
1007.801	1544.38
1012.936	1542.38
1018.066	1559.38
1023.19	1607.38
1028.309	1588.38
1033.423	1569.38
1038.532	1567.38
1043.636	1588.38
1048.734	1563.38
1053.827	1555.38
1058.915	1540.38
1063.998	1535.38
1069.075	1544.38
1074.147	1542.38
1079.214	1520.38
1084.276	1545.38
1089.333	1546.38
1094.385	1531.38
1099.431	1525.38
1104.472	1518.38
1109.509	1504.38
1114.54	1491.38
1119.565	1452.38
1124.586	1439.38
1129.602	1411.38
1134.613	1420.38
1139.618	1402.38
1144.619	1418.38
1149.614	1430.38
1154.604	1420.38
1159.589	1441.38
1164.57	1426.38
1169.545	1429.38
1174.515	1425.38
1179.48	1432.38
1184.44	1420.38
1189.395	1436.38
1194.345	1422.38
1199.29	1420.38
1204.23	1401.38
1209.165	1404.38
1214.095	1402.38
1219.021	1407.38
1223.941	1414.38
1228.856	1426.38
1233.766	1418.38
1238.672	1412.38
1243.572	1421.38
1248.467	1402.38
1253.358	1372.38
1258.244	1347.38
1263.124	1311.38
1268	1294.38
1272.871	1284.38
1277.737	1259.38
1282.599	1261.38
1287.455	1255.38
1292.306	1270.38
1297.153	1276.38
1301.995	1279.38
1306.832	1283.38
1311.664	1286.38
1316.491	1275.38
1321.314	1252.38
1326.132	1243.38
1330.945	1242.38
1335.753	1219.38
1340.556	1178.38
1345.354	1176.38
1350.148	1166.38
1354.937	1146.38
1359.722	1151.38
1364.501	1142.38
1369.276	1139.38
1374.046	1148.38
1378.811	1154.38
1383.572	1166.38
1388.327	1168.38
1393.079	1159.38
1397.825	1129.38
1402.567	1104.38
1407.304	1085.38
1412.036	1083.38
1416.764	1084.38
1421.487	1087.38
1426.205	1073.38
1430.919	1072.38
1435.628	1095.38
1440.333	1093.38
1445.032	1104.38
1449.727	1110.38
1454.418	1095.38
1459.104	1084.38
1463.785	1087.38
1468.462	1067.38
1473.134	1066.38
1477.802	1022.38
1482.465	1004.38
1487.123	1025.38
1491.777	1024.38
1496.426	1037.38
1501.071	1042.38
1505.711	1070.38
1510.347	1062.38
1514.978	1072.38
1519.604	1091.38
1524.226	1096.38
1528.844	1074.38
1533.457	1069.38
1538.065	1051.38
1542.669	1051.38
1547.269	1025.38
1551.864	1018.38
1556.454	1023.38
1561.041	1025.38
1565.622	1001.38
1570.199	993.38
1574.772	983.38
1579.34	970.38
1583.904	974.38
1588.464	979.38
1593.019	954.38
1597.569	956.38
1602.115	944.38
1606.657	919.38
1611.195	922.38
1615.728	900.38
1620.256	891.38
1624.78	885.38
1629.3	886.38
1633.816	883.38
1638.327	882.38
1642.834	886.38
1647.336	895.38
1651.834	900.38
1656.328	895.38
1660.817	905.38
1665.302	896.38
1669.783	885.38
1674.259	894.38
1678.732	880.38
1683.199	864.38
1687.663	850.38
1692.122	851.38
1696.577	847.38
1701.028	848.38
1705.474	831.38
1709.917	868.38
1714.355	858.38
1718.788	836.38
1723.218	842.38
1727.643	838.38
1732.064	821.38
1736.481	809.38
1740.893	791.38
1745.301	770.38
1749.705	764.38
1754.105	746.38
1758.501	736.38
1762.893	724.38
1767.28	704.38
1771.663	691.38
1776.042	689.38
1780.417	685.38
1784.787	679.38
1789.154	700.38
1793.516	704.38
1797.874	714.38
1802.228	716.38
1806.578	730.38
1810.924	718.38
1815.266	712.38
1819.603	688.38
1823.937	674.38
1828.266	666.38
1832.591	654.38
1836.913	670.38
1841.23	660.38
1845.543	648.38
1849.852	647.38
1854.156	644.38
1858.457	633.38
1862.754	651.38
1867.047	647.38
1871.335	643.38
1875.62	650.38
1879.9	657.38
1884.177	657.38
1888.449	650.38
1892.718	640.38
1896.982	631.38
1901.243	637.38
1905.499	623.38
1909.752	625.38
1914	629.38
1918.245	628.38
1922.485	637.38
1926.722	646.38
1930.954	647.38
1935.183	645.38
1939.408	654.38
1943.628	658.38
1947.845	653.38
1952.058	629.38
1956.267	655.38
1960.472	615.38
1964.673	599.38
1968.87	597.38
1973.063	581.38
1977.252	569.38
1981.438	552.38
1985.619	558.38
1989.797	543.38
1993.971	536.38
1998.14	535.38
2002.306	529.38
2006.469	528.38
2010.627	530.38
2014.781	516.38
2018.932	525.38
2023.078	510.38
2027.221	503.38
2031.36	505.38
2035.495	497.38
2039.627	487.38
2043.754	485.38
2047.878	482.38
2051.998	473.38
2056.114	477.38
2060.226	487.38
2064.334	488.38
2068.439	480.38
2072.54	480.38
2076.637	487.38
2080.73	486.38
2084.82	497.38
2088.906	503.38
2092.988	499.38
2097.066	503.38
2101.14	488.38
2105.211	476.38
2109.278	473.38
2113.342	474.38
2117.401	462.38
2121.457	471.38
2125.509	458.38
2129.558	451.38
2133.602	453.38
2137.643	441.38
2141.681	445.38
2145.714	432.38
2149.744	426.38
2153.77	425.38
2157.793	427.38
2161.812	421.38
2165.827	412.38
2169.838	407.38
2173.846	398.38
2177.851	401.38
2181.851	386.38
2185.848	391.38
2189.841	381.38
2193.831	389.38
2197.817	374.38
2201.799	375.38
2205.778	374.38
2209.753	368.38
2213.725	374.38
2217.693	376.38
2221.657	376.38
2225.618	378.38
2229.575	371.38
2233.529	370.38
2237.479	360.38
2241.425	367.38
2245.368	360.38
2249.307	351.38
2253.243	342.38
2257.175	340.38
2261.104	335.38
2265.029	340.38
2268.95	338.38
2272.868	341.38
2276.783	326.38
2280.694	321.38
2284.601	327.38
2288.505	332.38
2292.405	322.38
2296.302	310.38
2300.195	306.38
2304.085	309.38
2307.971	306.38
2311.854	300.38
2315.734	298.38
2319.609	291.38
2323.482	280.38
2327.351	301.38
2331.216	315.38
2335.078	316.38
2338.937	309.38
2342.792	273.38
2346.643	271.38
2350.492	274.38
2354.336	267.38
2358.178	285.38
2362.015	275.38
2365.85	279.38
2369.681	273.38
2373.508	282.38
2377.333	282.38
2381.153	286.38
2384.971	272.38
2388.785	273.38
2392.595	277.38
2396.402	279.38
2400.206	269.38
2404.007	267.38
2407.804	264.38
2411.597	269.38
2415.388	270.38
2419.174	263.38
2422.958	257.38
2426.738	262.38
2430.515	255.38
2434.289	259.38
2438.059	259.38
2441.825	252.38
2445.589	251.38
2449.349	246.38
2453.106	236.38
2456.859	237.38
2460.61	236.38
2464.356	233.38
2468.1	229.38
2471.84	225.38
2475.577	230.38
2479.311	230.38
2483.041	230.38
2486.768	220.38
2490.492	226.38
2494.213	226.38
2497.93	226.38
2501.644	224.38
2505.355	213.38
2509.062	220.38
2512.766	223.38
2516.467	211.38
2520.165	223.38
2523.859	218.38
2527.551	214.38
2531.239	212.38
2534.923	206.38
2538.605	204.38
2542.283	207.38
2545.958	214.38
2549.63	207.38
2553.299	200.38
2556.964	207.38
2560.626	211.38
2564.285	204.38
2567.941	198.38
2571.594	196.38
2575.243	190.38
2578.89	197.38
2582.533	193.38
2586.173	196.38
2589.809	187.38
2593.443	187.38
2597.073	187.38
2600.701	187.38
2604.325	177.38
2607.946	180.38
2611.564	172.38
2615.178	177.38
2618.79	174.38
2622.398	172.38
2626.004	164.38
2629.606	162.38
2633.205	161.38
2636.801	164.38
2640.394	158.38
2643.983	157.38
2647.57	143.38
2651.153	141.38
2654.734	146.38
2658.311	135.38
2661.885	129.38
2665.456	140.38
2669.025	132.38
2672.589	132.38
2676.151	131.38
2679.71	125.38
2683.266	127.38
2686.819	119.38
2690.368	130.38
2693.915	120.38
2697.458	119.38
2700.999	119.38
2704.536	112.38
2708.071	106.38
2711.602	92.38
2715.13	98.38
2718.656	100.38
2722.178	100.38
2725.697	92.38
2729.214	92.38
2732.727	104.38
2736.237	97.38
2739.744	94.38
2743.249	106.38
2746.75	89.38
2750.248	96.38
2753.743	95.38
2757.236	94.38
2760.725	98.38
2764.211	81.38
2767.695	105.38
2771.175	97.38
2774.652	94.38
2778.127	95.38
2781.598	85.38
2785.067	83.38
2788.532	87.38
2791.995	82.38
2795.455	81.38
2798.911	80.38
2802.365	80.38
2805.816	89.38
2809.264	72.38
2812.709	73.38
2816.151	76.38
2819.59	88.38
2823.026	80.38
2826.46	71.38
2829.89	76.38
2833.318	69.38
2836.742	73.38
2840.164	71.38
2843.583	73.38
2846.999	74.38
2850.412	66.38
2853.822	64.38
2857.229	70.38
2860.634	63.38
2864.035	59.38
2867.434	69.38
2870.83	64.38
2874.223	62.38
2877.613	57.38
2881	53.38
2884.385	50.38
2887.766	54.38
2891.145	44.38
2894.521	50.38
2897.894	44.38
2901.264	43.38
2904.631	39.38
2907.996	29.38
2911.358	42.38
2914.717	30.38
2918.073	31.38
2921.426	31.38
2924.777	34.38
2928.124	32.38
2931.469	28.38
2934.811	34.38
2938.15	21.38
2941.487	25.38
2944.821	19.38
2948.152	17.38
2951.48	23.38
2954.805	24.38
2958.128	21.38
2961.447	15.38
2964.765	14.38
2968.079	14.38
2971.39	18.38
2974.699	18.38
2978.005	13.38
2981.308	11.38
2984.609	4.38
2987.907	11.38
2991.202	3.38
2994.494	9.38
2997.784	14.38
3001.07	13.38
3004.355	4.38
3007.636	6.38
3010.915	4.38
3014.191	4.38
3017.464	2.38
3020.734	2.38
3024.002	-5.62
3027.267	-5.62
3030.53	-7.62
3033.789	-4.62
3037.046	-9.62
3040.301	-10.62
3043.552	-13.62
3046.801	-9.62
3050.048	-12.62
3053.291	-9.62
3056.532	-16.62
3059.771	-12.62
3063.006	-24.62
3066.239	-15.62
3069.469	-12.62
3072.697	-28.62
3075.922	-19.62
3079.144	-15.62
3082.364	-20.62
3085.581	-21.62
3088.795	-27.62
3092.007	-28.62
3095.216	-26.62
3098.423	-27.62
3101.627	-23.62
3104.828	-29.62
3108.026	-22.62
3111.222	-35.62
3114.416	-18.62
3117.607	-27.62
3120.795	-21.62
3123.98	-33.62
3127.163	-29.62
3130.344	-25.62
3133.521	-26.62
3136.696	-26.62
3139.869	-26.62
3143.039	-34.62
3146.206	-40.62
3149.371	-36.62
3152.533	-35.62
3155.693	-35.62
3158.85	-34.62
3162.005	-40.62
3165.157	-34.62
3168.306	-31.62
3171.453	-39.62
3174.597	-39.62
3177.739	-43.62
3180.878	-45.62
3184.014	-45.62
3187.149	-43.62
3190.28	-46.62
3193.409	-44.62
3196.536	-51.62
3199.659	-46.62
3202.781	-50.62
3205.9	-46.62
3209.016	-57.62
3212.13	-54.62
3215.241	-49.62
3218.35	-47.62
3221.456	-53.62
3224.56	-53.62
3227.661	-55.62
3230.76	-53.62
3233.856	-60.62
3236.95	-62.62
3240.041	-55.62
3243.13	-58.62
3246.216	-59.62
3249.3	-57.62
3252.382	-52.62
3255.46	-52.62
3258.537	-31.62
3261.611	-59.62
3264.682	-60.62
3267.751	-55.62
3270.818	-60.62
3273.882	-63.62
3276.943	-63.62
3280.002	-55.62
3283.059	-64.62
3286.113	-60.62
3289.165	-62.62
3292.214	-63.62
3295.261	-65.62
3298.306	-61.62
3301.348	-65.62
3304.387	-69.62
3307.425	-68.62
3310.459	-71.62
3313.492	-66.62
3316.521	-75.62
3319.549	-73.62
3322.574	-73.62
3325.597	-73.62
3328.617	-72.62
3331.635	-73.62
3334.65	-68.62
3337.663	-72.62
3340.674	-65.62
3343.682	-73.62
3346.688	-73.62
3349.691	-70.62
3352.692	-74.62
3355.691	-74.62
3358.687	-74.62
3361.681	-72.62
3364.673	-72.62
3367.662	-66.62
3370.649	-76.62
3373.633	-67.62
3376.615	-76.62
3379.595	-71.62
3382.572	-68.62
3385.547	-74.62
3388.52	-73.62
3391.49	-72.62
3394.458	-76.62
3397.424	-71.62
3400.387	-75.62
3403.348	-68.62
3406.307	-71.62
3409.263	-77.62
3412.217	-71.62
3415.168	-80.62
3418.118	-75.62
3421.065	-71.62
3424.009	-79.62
3426.951	-76.62
3429.891	-75.62
3432.829	-78.62
3435.764	-82.62
3438.697	-80.62
3441.628	-78.62
3444.557	-78.62
3447.483	-82.62
3450.407	-88.62
3453.328	-82.62
3456.247	-78.62
3459.164	-82.62
3462.079	-83.62
3464.991	-83.62
3467.902	-89.62
3470.809	-88.62
3473.715	-84.62
3476.618	-86.62
3479.519	-83.62
3482.418	-86.62
3485.315	-93.62
3488.209	-95.62
3491.101	-82.62
3493.99	-83.62
3496.878	-88.62
3499.763	-86.62
3502.646	-81.62
3505.527	-89.62
3508.405	-87.62
3511.281	-90.62
3514.155	-83.62
3517.027	-85.62
3519.897	-87.62
3522.764	-84.62
3525.629	-85.62
3528.492	-83.62
3531.352	-87.62
3534.211	-85.62
3537.067	-83.62
3539.921	-85.62
3542.773	-91.62
3545.622	-89.62
3548.469	-86.62
3551.315	-85.62
3554.157	-82.62
3556.998	-87.62
3559.837	-87.62
3562.673	-83.62
3565.507	-83.62
3568.339	-88.62
3571.169	-91.62
3573.996	-90.62
3576.822	-82.62
3579.645	-93.62
3582.466	-85.62
3585.285	-92.62
3588.101	-91.62
3590.916	-94.62
3593.728	-86.62
3596.538	-95.62
3599.346	-90.62
3602.152	-91.62
3604.956	-90.62
3607.757	-92.62
3610.556	-90.62
3613.354	-95.62
3616.149	-94.62
3618.942	-91.62
3621.732	-96.62
3624.521	-94.62
3627.307	-97.62
3630.092	-94.62
3632.874	-94.62
3635.654	-95.62
3638.432	-95.62
3641.208	-98.62
3643.982	-95.62
3646.753	-93.62
3649.523	-95.62
3652.29	-94.62
3655.055	-93.62
3657.818	-96.62
3660.579	-93.62
3663.338	-92.62
3666.095	-94.62
3668.849	-91.62
3671.602	-88.62
3674.352	-88.62
3677.101	-84.62
3679.847	-96.62
3682.591	-93.62
3685.333	-92.62
3688.073	-99.62
3690.811	-93.62
3693.547	-87.62
3696.281	-92.62
3699.013	-89.62
3701.742	-95.62
3704.47	-98.62
3707.195	-91.62
3709.919	-93.62
3712.64	-93.62
3715.359	-97.62
3718.076	-89.62
3720.792	-97.62
3723.505	-94.62
3726.216	-97.62
3728.925	-93.62
3731.632	-94.62
3734.336	-95.62
3737.039	-91.62
3739.74	-93.62
3742.439	-87.62
3745.136	-101.62
3747.83	-98.62
3750.523	-96.62
3753.213	-112.62
3755.902	-98.62
3758.589	-95.62
3761.273	-102.62
3763.956	-98.62
3766.636	-99.62
3769.315	-95.62
3771.991	-97.62
3774.665	-91.62
3777.338	-95.62
3780.008	-103.62
3782.677	-96.62
3785.343	-102.62
3788.007	-106.62
3790.67	-96.62
3793.33	-98.62
3795.989	-94.62
3798.645	-101.62
3801.299	-94.62
3803.952	-102.62
3806.602	-102.62
3809.251	-104.62
3811.897	-101.62
3814.542	-98.62
3817.184	-98.62
3819.825	-100.62
3822.463	-98.62
3825.1	-100.62
3827.735	-94.62
3830.367	-101.62
3832.998	-92.62
3835.627	-93.62
3838.253	-94.62
3840.878	-94.62
3843.501	-92.62
3846.122	-100.62
3848.741	-96.62
3851.358	-92.62
3853.973	-95.62
3856.586	-101.62
3859.197	-90.62
3861.806	-96.62
3864.414	-92.62
3867.019	-87.62
3869.622	-85.62
3872.224	-72.62
3874.823	-51.62
3877.421	-30.62
3880.016	9.38
3882.61	49.38
3885.202	72.38
3887.792	37.38
3890.38	-16.62
3892.966	-55.62
3895.55	-74.62
3898.132	-91.62
3900.713	-90.62
3903.291	-96.62
3905.868	-95.62
3908.442	-97.62
3911.015	-93.62
3913.586	-98.62
3916.155	-95.62
3918.722	-102.62
3921.287	-95.62
3923.85	-102.62
3926.411	-93.62
3928.971	-100.62
3931.528	-98.62
3934.084	-101.62
3936.638	-97.62
3939.19	-104.62
3941.74	-95.62
3944.288	-100.62
3946.834	-98.62
3949.378	-100.62
3951.921	-98.62
3954.462	-99.62
3957	-98.62
3959.537	-95.62
3962.072	-91.62
3964.606	-96.62
3967.137	-100.62
3969.667	-99.62
3972.194	-96.62
3974.72	-98.62
3977.244	-99.62
3979.766	-107.62
3982.286	-95.62
3984.805	-99.62
3987.321	-95.62
3989.836	-103.62
3992.349	-92.62
3994.86	-101.62
3997.369	-99.62
3999.877	-92.62
4002.382	-95.62
4004.886	-97.62
4007.388	-97.62
4009.888	-98.62
4012.386	-97.62
4014.883	-94.62
4017.377	-90.62
4019.87	-93.62
4022.361	-92.62
4024.85	-96.62
4027.338	-93.62
4029.823	-96.62
4032.307	-98.62
4034.789	-98.62
4037.269	-92.62
4039.747	-101.62
4042.224	-95.62
4044.699	-94.62
4047.172	-92.62
4049.643	-95.62
4052.112	-96.62
4054.58	-98.62
4057.046	-91.62
4059.51	-99.62
4061.972	-92.62
4064.432	-88.62
4066.891	-99.62
4069.348	-90.62
4071.803	-88.62
4074.256	-92.62
4076.708	-101.62
4079.158	-96.62
4081.606	-98.62
4084.052	-101.62
4086.497	-95.62
4088.939	-98.62
4091.38	-93.62
4093.819	-94.62
4096.257	-98.62
4098.693	-100.62
4101.127	-104.62
4103.559	-101.62
4105.989	39.38
4108.418	36.38
4110.845	31.38
4113.27	21.38
4115.694	28.38
4118.115	22.38
4120.535	-98.62
4122.954	-91.62
4125.37	-95.62
4127.785	-95.62
4130.198	-97.62
4132.609	-97.62
4135.019	-100.62
4137.427	-98.62
4139.833	-99.62
4142.237	-105.62