File: Data/Raman/2017-08-29 - Alluminum 2/Aug 29 2017 - Aluminum 2/EC 110 4_RamanShift_3.txt
Data from EC 110 4_RamanShift_3.txt Node

Date: Tue Aug 29 12:36:07 IDT 2017
User: aro
Spectrometer: QEPB0276
Trigger mode: 0
Integration Time (sec): 3.000000E1
Scans to average: 1
Electric dark correction enabled: true
Nonlinearity correction enabled: false
Boxcar width: 0
XAxis mode: Raman Shifts
Number of Pixels in Spectrum: 1044
>>>>>Begin Spectral Data<<<<<
160.701	28.88
166.742	38.88
172.777	71.88
178.805	167.88
184.826	390.88
190.841	781.88
196.849	1250.88
202.85	1600.88
208.845	1714.88
214.833	1717.88
220.815	1737.88
226.789	1747.88
232.758	1778.88
238.719	1801.88
244.674	1836.88
250.623	1857.88
256.565	1892.88
262.5	1888.88
268.429	1898.88
274.351	1940.88
280.267	1959.88
286.176	1998.88
292.079	2032.88
297.975	2055.88
303.865	2079.88
309.748	2108.88
315.625	2132.88
321.495	2149.88
327.359	2159.88
333.217	2196.88
339.068	2219.88
344.912	2231.88
350.751	2260.88
356.583	2268.88
362.408	2320.88
368.227	2362.88
374.04	2494.88
379.847	2647.88
385.647	2753.88
391.44	2622.88
397.228	2525.88
403.009	2565.88
408.784	2814.88
414.553	3344.88
420.315	3924.88
426.071	3980.88
431.821	3318.88
437.565	2756.88
443.302	2596.88
449.033	2499.88
454.758	2460.88
460.477	2383.88
466.189	2334.88
471.896	2286.88
477.596	2271.88
483.29	2243.88
488.978	2254.88
494.66	2216.88
500.335	2101.88
506.005	1916.88
511.668	1708.88
517.325	1518.88
522.977	1374.88
528.622	1269.88
534.261	1207.88
539.894	1133.88
545.521	1094.88
551.141	1076.88
556.756	1056.88
562.365	1039.88
567.968	1025.88
573.565	1006.88
579.155	1027.88
584.74	1031.88
590.319	1005.88
595.892	986.88
601.459	1004.88
607.02	1014.88
612.575	1001.88
618.124	978.88
623.667	949.88
629.204	953.88
634.735	1004.88
640.261	1129.88
645.781	1320.88
651.294	1394.88
656.802	1248.88
662.304	1012.88
667.8	908.88
673.29	855.88
678.775	831.88
684.254	825.88
689.726	812.88
695.193	805.88
700.655	782.88
706.11	778.88
711.56	782.88
717.004	775.88
722.442	794.88
727.874	789.88
733.301	802.88
738.722	806.88
744.137	854.88
749.547	909.88
754.951	950.88
760.349	926.88
765.741	887.88
771.128	860.88
776.509	878.88
781.885	920.88
787.254	949.88
792.618	952.88
797.977	955.88
803.33	949.88
808.677	949.88
814.019	932.88
819.355	908.88
824.686	895.88
830.011	881.88
835.33	858.88
840.644	847.88
845.952	840.88
851.255	804.88
856.552	769.88
861.844	746.88
867.13	724.88
872.41	713.88
877.686	693.88
882.955	687.88
888.219	668.88
893.478	668.88
898.731	662.88
903.979	657.88
909.221	654.88
914.458	654.88
919.69	657.88
924.916	654.88
930.136	656.88
935.351	654.88
940.561	644.88
945.766	645.88
950.965	658.88
956.158	640.88
961.347	633.88
966.529	638.88
971.707	626.88
976.879	613.88
982.046	617.88
987.208	607.88
992.364	612.88
997.515	618.88
1002.66	616.88
1007.801	628.88
1012.936	645.88
1018.066	654.88
1023.19	649.88
1028.309	668.88
1033.423	663.88
1038.532	677.88
1043.636	674.88
1048.734	681.88
1053.827	672.88
1058.915	662.88
1063.998	680.88
1069.075	679.88
1074.147	665.88
1079.214	671.88
1084.276	660.88
1089.333	658.88
1094.385	648.88
1099.431	655.88
1104.472	639.88
1109.509	625.88
1114.54	611.88
1119.565	608.88
1124.586	587.88
1129.602	588.88
1134.613	595.88
1139.618	587.88
1144.619	578.88
1149.614	590.88
1154.604	599.88
1159.589	605.88
1164.57	585.88
1169.545	618.88
1174.515	616.88
1179.48	594.88
1184.44	616.88
1189.395	612.88
1194.345	616.88
1199.29	606.88
1204.23	601.88
1209.165	594.88
1214.095	613.88
1219.021	610.88
1223.941	609.88
1228.856	613.88
1233.766	612.88
1238.672	603.88
1243.572	611.88
1248.467	607.88
1253.358	585.88
1258.244	567.88
1263.124	560.88
1268	545.88
1272.871	534.88
1277.737	516.88
1282.599	531.88
1287.455	525.88
1292.306	530.88
1297.153	540.88
1301.995	537.88
1306.832	541.88
1311.664	543.88
1316.491	535.88
1321.314	535.88
1326.132	529.88
1330.945	525.88
1335.753	525.88
1340.556	511.88
1345.354	518.88
1350.148	512.88
1354.937	519.88
1359.722	506.88
1364.501	512.88
1369.276	499.88
1374.046	499.88
1378.811	499.88
1383.572	502.88
1388.327	495.88
1393.079	487.88
1397.825	479.88
1402.567	473.88
1407.304	461.88
1412.036	463.88
1416.764	454.88
1421.487	452.88
1426.205	457.88
1430.919	452.88
1435.628	468.88
1440.333	468.88
1445.032	475.88
1449.727	481.88
1454.418	485.88
1459.104	489.88
1463.785	474.88
1468.462	471.88
1473.134	477.88
1477.802	469.88
1482.465	487.88
1487.123	473.88
1491.777	470.88
1496.426	490.88
1501.071	485.88
1505.711	488.88
1510.347	493.88
1514.978	501.88
1519.604	499.88
1524.226	507.88
1528.844	495.88
1533.457	477.88
1538.065	481.88
1542.669	464.88
1547.269	466.88
1551.864	458.88
1556.454	469.88
1561.041	462.88
1565.622	451.88
1570.199	433.88
1574.772	437.88
1579.34	440.88
1583.904	444.88
1588.464	424.88
1593.019	433.88
1597.569	430.88
1602.115	419.88
1606.657	424.88
1611.195	408.88
1615.728	406.88
1620.256	417.88
1624.78	397.88
1629.3	392.88
1633.816	402.88
1638.327	405.88
1642.834	416.88
1647.336	414.88
1651.834	411.88
1656.328	418.88
1660.817	422.88
1665.302	418.88
1669.783	428.88
1674.259	419.88
1678.732	412.88
1683.199	414.88
1687.663	420.88
1692.122	401.88
1696.577	413.88
1701.028	408.88
1705.474	410.88
1709.917	413.88
1714.355	404.88
1718.788	402.88
1723.218	400.88
1727.643	388.88
1732.064	374.88
1736.481	378.88
1740.893	358.88
1745.301	356.88
1749.705	349.88
1754.105	344.88
1758.501	334.88
1762.893	334.88
1767.28	323.88
1771.663	321.88
1776.042	328.88
1780.417	327.88
1784.787	323.88
1789.154	323.88
1793.516	333.88
1797.874	343.88
1802.228	335.88
1806.578	335.88
1810.924	329.88
1815.266	322.88
1819.603	312.88
1823.937	306.88
1828.266	302.88
1832.591	294.88
1836.913	292.88
1841.23	293.88
1845.543	285.88
1849.852	289.88
1854.156	302.88
1858.457	290.88
1862.754	297.88
1867.047	296.88
1871.335	298.88
1875.62	305.88
1879.9	298.88
1884.177	299.88
1888.449	295.88
1892.718	294.88
1896.982	297.88
1901.243	285.88
1905.499	291.88
1909.752	301.88
1914	295.88
1918.245	301.88
1922.485	312.88
1926.722	307.88
1930.954	309.88
1935.183	308.88
1939.408	316.88
1943.628	308.88
1947.845	303.88
1952.058	304.88
1956.267	297.88
1960.472	285.88
1964.673	275.88
1968.87	265.88
1973.063	265.88
1977.252	258.88
1981.438	262.88
1985.619	259.88
1989.797	241.88
1993.971	242.88
1998.14	236.88
2002.306	240.88
2006.469	244.88
2010.627	241.88
2014.781	238.88
2018.932	237.88
2023.078	239.88
2027.221	239.88
2031.36	228.88
2035.495	222.88
2039.627	221.88
2043.754	222.88
2047.878	215.88
2051.998	211.88
2056.114	223.88
2060.226	233.88
2064.334	234.88
2068.439	233.88
2072.54	227.88
2076.637	234.88
2080.73	226.88
2084.82	231.88
2088.906	239.88
2092.988	247.88
2097.066	241.88
2101.14	218.88
2105.211	233.88
2109.278	217.88
2113.342	220.88
2117.401	217.88
2121.457	214.88
2125.509	213.88
2129.558	211.88
2133.602	204.88
2137.643	200.88
2141.681	196.88
2145.714	195.88
2149.744	186.88
2153.77	195.88
2157.793	187.88
2161.812	176.88
2165.827	192.88
2169.838	172.88
2173.846	183.88
2177.851	179.88
2181.851	164.88
2185.848	163.88
2189.841	169.88
2193.831	168.88
2197.817	159.88
2201.799	166.88
2205.778	166.88
2209.753	159.88
2213.725	170.88
2217.693	160.88
2221.657	160.88
2225.618	165.88
2229.575	158.88
2233.529	165.88
2237.479	164.88
2241.425	164.88
2245.368	159.88
2249.307	152.88
2253.243	147.88
2257.175	144.88
2261.104	155.88
2265.029	141.88
2268.95	144.88
2272.868	141.88
2276.783	132.88
2280.694	137.88
2284.601	133.88
2288.505	141.88
2292.405	141.88
2296.302	135.88
2300.195	125.88
2304.085	132.88
2307.971	118.88
2311.854	121.88
2315.734	119.88
2319.609	113.88
2323.482	115.88
2327.351	128.88
2331.216	154.88
2335.078	149.88
2338.937	130.88
2342.792	111.88
2346.643	112.88
2350.492	119.88
2354.336	111.88
2358.178	109.88
2362.015	109.88
2365.85	106.88
2369.681	113.88
2373.508	114.88
2377.333	105.88
2381.153	116.88
2384.971	112.88
2388.785	104.88
2392.595	106.88
2396.402	109.88
2400.206	103.88
2404.007	102.88
2407.804	102.88
2411.597	112.88
2415.388	107.88
2419.174	103.88
2422.958	98.88
2426.738	102.88
2430.515	93.88
2434.289	97.88
2438.059	98.88
2441.825	96.88
2445.589	85.88
2449.349	87.88
2453.106	88.88
2456.859	89.88
2460.61	89.88
2464.356	80.88
2468.1	79.88
2471.84	84.88
2475.577	82.88
2479.311	82.88
2483.041	83.88
2486.768	84.88
2490.492	81.88
2494.213	78.88
2497.93	84.88
2501.644	77.88
2505.355	71.88
2509.062	86.88
2512.766	80.88
2516.467	77.88
2520.165	85.88
2523.859	78.88
2527.551	78.88
2531.239	76.88
2534.923	76.88
2538.605	72.88
2542.283	66.88
2545.958	74.88
2549.63	74.88
2553.299	68.88
2556.964	75.88
2560.626	74.88
2564.285	71.88
2567.941	76.88
2571.594	65.88
2575.243	66.88
2578.89	70.88
2582.533	71.88
2586.173	65.88
2589.809	70.88
2593.443	61.88
2597.073	63.88
2600.701	59.88
2604.325	64.88
2607.946	64.88
2611.564	64.88
2615.178	53.88
2618.79	58.88
2622.398	55.88
2626.004	46.88
2629.606	51.88
2633.205	51.88
2636.801	53.88
2640.394	56.88
2643.983	51.88
2647.57	43.88
2651.153	42.88
2654.734	42.88
2658.311	47.88
2661.885	34.88
2665.456	48.88
2669.025	40.88
2672.589	41.88
2676.151	36.88
2679.71	31.88
2683.266	36.88
2686.819	28.88
2690.368	37.88
2693.915	33.88
2697.458	24.88
2700.999	27.88
2704.536	26.88
2708.071	31.88
2711.602	21.88
2715.13	28.88
2718.656	29.88
2722.178	21.88
2725.697	19.88
2729.214	26.88
2732.727	31.88
2736.237	29.88
2739.744	34.88
2743.249	36.88
2746.75	23.88
2750.248	21.88
2753.743	24.88
2757.236	27.88
2760.725	24.88
2764.211	16.88
2767.695	25.88
2771.175	26.88
2774.652	17.88
2778.127	21.88
2781.598	19.88
2785.067	12.88
2788.532	19.88
2791.995	13.88
2795.455	19.88
2798.911	16.88
2802.365	16.88
2805.816	21.88
2809.264	10.88
2812.709	9.88
2816.151	15.88
2819.59	18.88
2823.026	13.88
2826.46	12.88
2829.89	11.88
2833.318	16.88
2836.742	12.88
2840.164	11.88
2843.583	5.88
2846.999	11.88
2850.412	7.88
2853.822	6.88
2857.229	16.88
2860.634	15.88
2864.035	6.88
2867.434	12.88
2870.83	10.88
2874.223	5.88
2877.613	4.88
2881	-1.12
2884.385	-4.12
2887.766	-2.12
2891.145	-1.12
2894.521	-0.12
2897.894	-3.12
2901.264	-5.12
2904.631	-5.12
2907.996	-10.12
2911.358	-3.12
2914.717	-8.12
2918.073	-13.12
2921.426	-12.12
2924.777	-7.12
2928.124	-16.12
2931.469	-7.12
2934.811	-11.12
2938.15	-19.12
2941.487	-12.12
2944.821	-11.12
2948.152	-18.12
2951.48	-16.12
2954.805	-13.12
2958.128	-19.12
2961.447	-17.12
2964.765	-17.12
2968.079	-16.12
2971.39	-19.12
2974.699	-14.12
2978.005	-15.12
2981.308	-18.12
2984.609	-21.12
2987.907	-11.12
2991.202	-18.12
2994.494	-11.12
2997.784	-16.12
3001.07	-16.12
3004.355	-23.12
3007.636	-20.12
3010.915	-21.12
3014.191	-22.12
3017.464	-21.12
3020.734	-17.12
3024.002	-25.12
3027.267	-26.12
3030.53	-28.12
3033.789	-17.12
3037.046	-25.12
3040.301	-30.12
3043.552	-35.12
3046.801	-31.12
3050.048	-35.12
3053.291	-33.12
3056.532	-38.12
3059.771	-21.12
3063.006	-36.12
3066.239	-28.12
3069.469	-28.12
3072.697	-36.12
3075.922	-36.12
3079.144	-38.12
3082.364	-38.12
3085.581	-35.12
3088.795	-43.12
3092.007	-42.12
3095.216	-35.12
3098.423	-35.12
3101.627	-32.12
3104.828	-36.12
3108.026	-34.12
3111.222	-38.12
3114.416	-37.12
3117.607	-34.12
3120.795	-34.12
3123.98	-37.12
3127.163	-37.12
3130.344	-41.12
3133.521	-46.12
3136.696	-39.12
3139.869	-40.12
3143.039	-45.12
3146.206	-43.12
3149.371	-41.12
3152.533	-44.12
3155.693	-46.12
3158.85	-43.12
3162.005	-46.12
3165.157	-49.12
3168.306	-43.12
3171.453	-46.12
3174.597	-44.12
3177.739	-48.12
3180.878	-46.12
3184.014	-50.12
3187.149	-44.12
3190.28	-48.12
3193.409	-44.12
3196.536	-58.12
3199.659	-50.12
3202.781	-52.12
3205.9	-49.12
3209.016	-58.12
3212.13	-53.12
3215.241	-58.12
3218.35	-52.12
3221.456	-52.12
3224.56	-53.12
3227.661	-54.12
3230.76	-59.12
3233.856	-61.12
3236.95	-54.12
3240.041	-55.12
3243.13	-56.12
3246.216	-53.12
3249.3	-58.12
3252.382	-54.12
3255.46	-47.12
3258.537	-25.12
3261.611	-56.12
3264.682	-53.12
3267.751	-45.12
3270.818	-53.12
3273.882	-60.12
3276.943	-58.12
3280.002	-48.12
3283.059	-63.12
3286.113	-53.12
3289.165	-55.12
3292.214	-56.12
3295.261	-52.12
3298.306	-55.12
3301.348	-61.12
3304.387	-59.12
3307.425	-53.12
3310.459	-60.12
3313.492	-61.12
3316.521	-59.12
3319.549	-61.12
3322.574	-60.12
3325.597	-64.12
3328.617	-54.12
3331.635	-55.12
3334.65	-62.12
3337.663	-63.12
3340.674	-56.12
3343.682	-61.12
3346.688	-59.12
3349.691	-63.12
3352.692	-60.12
3355.691	-66.12
3358.687	-62.12
3361.681	-60.12
3364.673	-66.12
3367.662	-58.12
3370.649	-64.12
3373.633	-60.12
3376.615	-58.12
3379.595	-63.12
3382.572	-58.12
3385.547	-63.12
3388.52	-57.12
3391.49	-59.12
3394.458	-65.12
3397.424	-53.12
3400.387	-64.12
3403.348	-59.12
3406.307	-59.12
3409.263	-59.12
3412.217	-60.12
3415.168	-59.12
3418.118	-60.12
3421.065	-60.12
3424.009	-57.12
3426.951	-64.12
3429.891	-61.12
3432.829	-61.12
3435.764	-64.12
3438.697	-65.12
3441.628	-62.12
3444.557	-60.12
3447.483	-68.12
3450.407	-66.12
3453.328	-63.12
3456.247	-64.12
3459.164	-66.12
3462.079	-66.12
3464.991	-70.12
3467.902	-71.12
3470.809	-71.12
3473.715	-72.12
3476.618	-75.12
3479.519	-63.12
3482.418	-70.12
3485.315	-73.12
3488.209	-70.12
3491.101	-66.12
3493.99	-66.12
3496.878	-68.12
3499.763	-71.12
3502.646	-67.12
3505.527	-78.12
3508.405	-75.12
3511.281	-75.12
3514.155	-67.12
3517.027	-72.12
3519.897	-71.12
3522.764	-65.12
3525.629	-75.12
3528.492	-70.12
3531.352	-72.12
3534.211	-74.12
3537.067	-72.12
3539.921	-73.12
3542.773	-75.12
3545.622	-69.12
3548.469	-74.12
3551.315	-69.12
3554.157	-65.12
3556.998	-76.12
3559.837	-66.12
3562.673	-72.12
3565.507	-70.12
3568.339	-70.12
3571.169	-72.12
3573.996	-67.12
3576.822	-69.12
3579.645	-73.12
3582.466	-65.12
3585.285	-77.12
3588.101	-73.12
3590.916	-73.12
3593.728	-65.12
3596.538	-78.12
3599.346	-79.12
3602.152	-75.12
3604.956	-69.12
3607.757	-73.12
3610.556	-73.12
3613.354	-70.12
3616.149	-78.12
3618.942	-76.12
3621.732	-76.12
3624.521	-71.12
3627.307	-76.12
3630.092	-77.12
3632.874	-75.12
3635.654	-70.12
3638.432	-75.12
3641.208	-71.12
3643.982	-74.12
3646.753	-75.12
3649.523	-80.12
3652.29	-74.12
3655.055	-72.12
3657.818	-72.12
3660.579	-72.12
3663.338	-79.12
3666.095	-75.12
3668.849	-74.12
3671.602	-72.12
3674.352	-72.12
3677.101	-74.12
3679.847	-76.12
3682.591	-76.12
3685.333	-75.12
3688.073	-78.12
3690.811	-70.12
3693.547	-75.12
3696.281	-73.12
3699.013	-74.12
3701.742	-71.12
3704.47	-81.12
3707.195	-69.12
3709.919	-71.12
3712.64	-74.12
3715.359	-73.12
3718.076	-69.12
3720.792	-78.12
3723.505	-73.12
3726.216	-77.12
3728.925	-77.12
3731.632	-75.12
3734.336	-77.12
3737.039	-77.12
3739.74	-78.12
3742.439	-70.12
3745.136	-77.12
3747.83	-76.12
3750.523	-77.12
3753.213	-103.12
3755.902	-75.12
3758.589	-76.12
3761.273	-81.12
3763.956	-75.12
3766.636	-74.12
3769.315	-79.12
3771.991	-79.12
3774.665	-74.12
3777.338	-75.12
3780.008	-83.12
3782.677	-79.12
3785.343	-82.12
3788.007	-81.12
3790.67	-79.12
3793.33	-78.12
3795.989	-76.12
3798.645	-81.12
3801.299	-80.12
3803.952	-77.12
3806.602	-80.12
3809.251	-82.12
3811.897	-78.12
3814.542	-80.12
3817.184	-76.12
3819.825	-75.12
3822.463	-80.12
3825.1	-79.12
3827.735	-79.12
3830.367	-85.12
3832.998	-71.12
3835.627	-72.12
3838.253	-78.12
3840.878	-77.12
3843.501	-70.12
3846.122	-78.12
3848.741	-76.12
3851.358	-71.12
3853.973	-69.12
3856.586	-80.12
3859.197	-69.12
3861.806	-76.12
3864.414	-77.12
3867.019	-67.12
3869.622	-67.12
3872.224	-53.12
3874.823	-33.12
3877.421	-15.12
3880.016	25.88
3882.61	56.88
3885.202	66.88
3887.792	36.88
3890.38	-14.12
3892.966	-44.12
3895.55	-61.12
3898.132	-76.12
3900.713	-74.12
3903.291	-76.12
3905.868	-76.12
3908.442	-75.12
3911.015	-74.12
3913.586	-79.12
3916.155	-72.12
3918.722	-74.12
3921.287	-78.12
3923.85	-78.12
3926.411	-73.12
3928.971	-78.12
3931.528	-74.12
3934.084	-73.12
3936.638	-79.12
3939.19	-81.12
3941.74	-74.12
3944.288	-77.12
3946.834	-75.12
3949.378	-78.12
3951.921	-80.12
3954.462	-71.12
3957	-74.12
3959.537	-76.12
3962.072	-65.12
3964.606	-70.12
3967.137	-79.12
3969.667	-79.12
3972.194	-82.12
3974.72	-81.12
3977.244	-81.12
3979.766	-82.12
3982.286	-72.12
3984.805	-78.12
3987.321	-74.12
3989.836	-76.12
3992.349	-76.12
3994.86	-78.12
3997.369	-78.12
3999.877	-73.12
4002.382	-77.12
4004.886	-71.12
4007.388	-71.12
4009.888	-79.12
4012.386	-78.12
4014.883	-76.12
4017.377	-75.12
4019.87	-74.12
4022.361	-78.12
4024.85	-82.12
4027.338	-75.12
4029.823	-75.12
4032.307	-74.12
4034.789	-79.12
4037.269	-75.12
4039.747	-76.12
4042.224	-80.12
4044.699	-72.12
4047.172	-79.12
4049.643	-74.12
4052.112	-71.12
4054.58	-75.12
4057.046	-72.12
4059.51	-75.12
4061.972	-76.12
4064.432	-75.12
4066.891	-80.12
4069.348	-72.12
4071.803	-73.12
4074.256	-72.12
4076.708	-77.12
4079.158	-71.12
4081.606	-75.12
4084.052	-74.12
4086.497	-79.12
4088.939	-81.12
4091.38	-79.12
4093.819	-79.12
4096.257	-76.12
4098.693	-80.12
4101.127	-77.12
4103.559	-77.12
4105.989	42.88
4108.418	45.88
4110.845	28.88
4113.27	31.88
4115.694	25.88
4118.115	30.88
4120.535	-72.12
4122.954	-69.12
4125.37	-78.12
4127.785	-75.12
4130.198	-76.12
4132.609	-76.12
4135.019	-76.12
4137.427	-76.12
4139.833	-76.12
4142.237	-79.12