File: Data/Raman/2017-08-29 - Alluminum 2/Aug 29 2017 - Aluminum 2/EC 110 3_RamanShift_2.txt
Data from EC 110 3_RamanShift_2.txt Node

Date: Tue Aug 29 12:33:37 IDT 2017
User: aro
Spectrometer: QEPB0276
Trigger mode: 0
Integration Time (sec): 3.000000E1
Scans to average: 1
Electric dark correction enabled: true
Nonlinearity correction enabled: false
Boxcar width: 0
XAxis mode: Raman Shifts
Number of Pixels in Spectrum: 1044
>>>>>Begin Spectral Data<<<<<
160.701	26.88
166.742	39.88
172.777	79.88
178.805	191.88
184.826	461.88
190.841	926.88
196.849	1475.88
202.85	1855.88
208.845	1990.88
214.833	2025.88
220.815	2011.88
226.789	2045.88
232.758	2108.88
238.719	2140.88
244.674	2181.88
250.623	2201.88
256.565	2202.88
262.5	2236.88
268.429	2284.88
274.351	2322.88
280.267	2390.88
286.176	2390.88
292.079	2425.88
297.975	2469.88
303.865	2521.88
309.748	2549.88
315.625	2583.88
321.495	2595.88
327.359	2611.88
333.217	2627.88
339.068	2669.88
344.912	2697.88
350.751	2717.88
356.583	2755.88
362.408	2779.88
368.227	2851.88
374.04	2995.88
379.847	3143.88
385.647	3273.88
391.44	3147.88
397.228	3013.88
403.009	3055.88
408.784	3317.88
414.553	3920.88
420.315	4587.88
426.071	4608.88
431.821	3909.88
437.565	3269.88
443.302	3082.88
449.033	3003.88
454.758	2934.88
460.477	2901.88
466.189	2812.88
471.896	2764.88
477.596	2730.88
483.29	2703.88
488.978	2715.88
494.66	2663.88
500.335	2536.88
506.005	2330.88
511.668	2112.88
517.325	1915.88
522.977	1717.88
528.622	1617.88
534.261	1552.88
539.894	1481.88
545.521	1433.88
551.141	1403.88
556.756	1365.88
562.365	1344.88
567.968	1344.88
573.565	1339.88
579.155	1355.88
584.74	1341.88
590.319	1332.88
595.892	1306.88
601.459	1322.88
607.02	1318.88
612.575	1309.88
618.124	1266.88
623.667	1254.88
629.204	1248.88
634.735	1312.88
640.261	1468.88
645.781	1662.88
651.294	1756.88
656.802	1591.88
662.304	1322.88
667.8	1184.88
673.29	1133.88
678.775	1126.88
684.254	1096.88
689.726	1087.88
695.193	1071.88
700.655	1074.88
706.11	1066.88
711.56	1059.88
717.004	1044.88
722.442	1057.88
727.874	1071.88
733.301	1085.88
738.722	1098.88
744.137	1150.88
749.547	1208.88
754.951	1248.88
760.349	1228.88
765.741	1177.88
771.128	1162.88
776.509	1180.88
781.885	1216.88
787.254	1230.88
792.618	1252.88
797.977	1252.88
803.33	1240.88
808.677	1232.88
814.019	1209.88
819.355	1214.88
824.686	1192.88
830.011	1189.88
835.33	1157.88
840.644	1143.88
845.952	1102.88
851.255	1096.88
856.552	1049.88
861.844	1025.88
867.13	1003.88
872.41	984.88
877.686	969.88
882.955	955.88
888.219	943.88
893.478	932.88
898.731	942.88
903.979	925.88
909.221	925.88
914.458	911.88
919.69	913.88
924.916	913.88
930.136	918.88
935.351	926.88
940.561	907.88
945.766	914.88
950.965	933.88
956.158	906.88
961.347	909.88
966.529	906.88
971.707	885.88
976.879	870.88
982.046	870.88
987.208	873.88
992.364	862.88
997.515	878.88
1002.66	873.88
1007.801	892.88
1012.936	893.88
1018.066	904.88
1023.19	909.88
1028.309	926.88
1033.423	929.88
1038.532	933.88
1043.636	947.88
1048.734	931.88
1053.827	941.88
1058.915	930.88
1063.998	936.88
1069.075	927.88
1074.147	928.88
1079.214	920.88
1084.276	927.88
1089.333	929.88
1094.385	914.88
1099.431	911.88
1104.472	891.88
1109.509	884.88
1114.54	876.88
1119.565	845.88
1124.586	835.88
1129.602	818.88
1134.613	830.88
1139.618	818.88
1144.619	811.88
1149.614	830.88
1154.604	844.88
1159.589	850.88
1164.57	845.88
1169.545	857.88
1174.515	855.88
1179.48	852.88
1184.44	858.88
1189.395	838.88
1194.345	845.88
1199.29	840.88
1204.23	842.88
1209.165	845.88
1214.095	845.88
1219.021	867.88
1223.941	856.88
1228.856	867.88
1233.766	856.88
1238.672	850.88
1243.572	850.88
1248.467	838.88
1253.358	826.88
1258.244	810.88
1263.124	789.88
1268	758.88
1272.871	758.88
1277.737	750.88
1282.599	749.88
1287.455	747.88
1292.306	763.88
1297.153	757.88
1301.995	764.88
1306.832	766.88
1311.664	756.88
1316.491	768.88
1321.314	750.88
1326.132	759.88
1330.945	757.88
1335.753	738.88
1340.556	727.88
1345.354	708.88
1350.148	712.88
1354.937	708.88
1359.722	700.88
1364.501	703.88
1369.276	700.88
1374.046	703.88
1378.811	700.88
1383.572	708.88
1388.327	720.88
1393.079	692.88
1397.825	691.88
1402.567	661.88
1407.304	649.88
1412.036	659.88
1416.764	652.88
1421.487	646.88
1426.205	646.88
1430.919	658.88
1435.628	664.88
1440.333	673.88
1445.032	679.88
1449.727	667.88
1454.418	678.88
1459.104	686.88
1463.785	668.88
1468.462	668.88
1473.134	667.88
1477.802	644.88
1482.465	653.88
1487.123	653.88
1491.777	656.88
1496.426	663.88
1501.071	663.88
1505.711	692.88
1510.347	695.88
1514.978	700.88
1519.604	690.88
1524.226	706.88
1528.844	690.88
1533.457	675.88
1538.065	665.88
1542.669	662.88
1547.269	652.88
1551.864	651.88
1556.454	651.88
1561.041	661.88
1565.622	645.88
1570.199	627.88
1574.772	631.88
1579.34	617.88
1583.904	630.88
1588.464	602.88
1593.019	611.88
1597.569	616.88
1602.115	605.88
1606.657	597.88
1611.195	582.88
1615.728	568.88
1620.256	587.88
1624.78	574.88
1629.3	569.88
1633.816	565.88
1638.327	575.88
1642.834	570.88
1647.336	587.88
1651.834	585.88
1656.328	573.88
1660.817	594.88
1665.302	597.88
1669.783	584.88
1674.259	585.88
1678.732	581.88
1683.199	583.88
1687.663	584.88
1692.122	572.88
1696.577	577.88
1701.028	573.88
1705.474	565.88
1709.917	579.88
1714.355	570.88
1718.788	565.88
1723.218	554.88
1727.643	561.88
1732.064	538.88
1736.481	535.88
1740.893	526.88
1745.301	508.88
1749.705	499.88
1754.105	485.88
1758.501	476.88
1762.893	469.88
1767.28	469.88
1771.663	458.88
1776.042	467.88
1780.417	466.88
1784.787	466.88
1789.154	475.88
1793.516	472.88
1797.874	471.88
1802.228	470.88
1806.578	487.88
1810.924	481.88
1815.266	475.88
1819.603	462.88
1823.937	442.88
1828.266	445.88
1832.591	443.88
1836.913	444.88
1841.23	434.88
1845.543	433.88
1849.852	433.88
1854.156	430.88
1858.457	420.88
1862.754	434.88
1867.047	435.88
1871.335	430.88
1875.62	441.88
1879.9	433.88
1884.177	434.88
1888.449	430.88
1892.718	440.88
1896.982	429.88
1901.243	424.88
1905.499	431.88
1909.752	419.88
1914	433.88
1918.245	441.88
1922.485	442.88
1926.722	442.88
1930.954	445.88
1935.183	448.88
1939.408	442.88
1943.628	464.88
1947.845	445.88
1952.058	444.88
1956.267	436.88
1960.472	431.88
1964.673	421.88
1968.87	393.88
1973.063	397.88
1977.252	377.88
1981.438	374.88
1985.619	375.88
1989.797	364.88
1993.971	366.88
1998.14	358.88
2002.306	359.88
2006.469	362.88
2010.627	368.88
2014.781	365.88
2018.932	358.88
2023.078	348.88
2027.221	348.88
2031.36	335.88
2035.495	335.88
2039.627	321.88
2043.754	334.88
2047.878	329.88
2051.998	324.88
2056.114	334.88
2060.226	330.88
2064.334	333.88
2068.439	335.88
2072.54	330.88
2076.637	333.88
2080.73	339.88
2084.82	341.88
2088.906	346.88
2092.988	363.88
2097.066	358.88
2101.14	331.88
2105.211	332.88
2109.278	330.88
2113.342	336.88
2117.401	327.88
2121.457	323.88
2125.509	317.88
2129.558	310.88
2133.602	314.88
2137.643	307.88
2141.681	311.88
2145.714	307.88
2149.744	295.88
2153.77	297.88
2157.793	293.88
2161.812	286.88
2165.827	286.88
2169.838	274.88
2173.846	275.88
2177.851	277.88
2181.851	261.88
2185.848	268.88
2189.841	265.88
2193.831	262.88
2197.817	267.88
2201.799	259.88
2205.778	258.88
2209.753	256.88
2213.725	256.88
2217.693	263.88
2221.657	264.88
2225.618	266.88
2229.575	257.88
2233.529	262.88
2237.479	262.88
2241.425	257.88
2245.368	255.88
2249.307	238.88
2253.243	244.88
2257.175	247.88
2261.104	248.88
2265.029	237.88
2268.95	230.88
2272.868	237.88
2276.783	227.88
2280.694	229.88
2284.601	221.88
2288.505	228.88
2292.405	219.88
2296.302	215.88
2300.195	220.88
2304.085	214.88
2307.971	213.88
2311.854	207.88
2315.734	198.88
2319.609	197.88
2323.482	206.88
2327.351	211.88
2331.216	232.88
2335.078	233.88
2338.937	222.88
2342.792	191.88
2346.643	188.88
2350.492	195.88
2354.336	194.88
2358.178	193.88
2362.015	187.88
2365.85	184.88
2369.681	193.88
2373.508	195.88
2377.333	183.88
2381.153	185.88
2384.971	186.88
2388.785	190.88
2392.595	179.88
2396.402	181.88
2400.206	181.88
2404.007	189.88
2407.804	176.88
2411.597	186.88
2415.388	177.88
2419.174	178.88
2422.958	180.88
2426.738	179.88
2430.515	179.88
2434.289	175.88
2438.059	174.88
2441.825	158.88
2445.589	164.88
2449.349	164.88
2453.106	155.88
2456.859	156.88
2460.61	165.88
2464.356	149.88
2468.1	145.88
2471.84	147.88
2475.577	157.88
2479.311	157.88
2483.041	159.88
2486.768	153.88
2490.492	149.88
2494.213	149.88
2497.93	153.88
2501.644	150.88
2505.355	146.88
2509.062	162.88
2512.766	149.88
2516.467	148.88
2520.165	153.88
2523.859	146.88
2527.551	152.88
2531.239	151.88
2534.923	140.88
2538.605	146.88
2542.283	141.88
2545.958	144.88
2549.63	151.88
2553.299	144.88
2556.964	140.88
2560.626	145.88
2564.285	146.88
2567.941	147.88
2571.594	146.88
2575.243	132.88
2578.89	139.88
2582.533	139.88
2586.173	143.88
2589.809	135.88
2593.443	135.88
2597.073	139.88
2600.701	134.88
2604.325	128.88
2607.946	131.88
2611.564	118.88
2615.178	125.88
2618.79	120.88
2622.398	117.88
2626.004	117.88
2629.606	118.88
2633.205	112.88
2636.801	114.88
2640.394	110.88
2643.983	111.88
2647.57	106.88
2651.153	102.88
2654.734	104.88
2658.311	101.88
2661.885	100.88
2665.456	103.88
2669.025	99.88
2672.589	93.88
2676.151	96.88
2679.71	85.88
2683.266	82.88
2686.819	94.88
2690.368	89.88
2693.915	78.88
2697.458	82.88
2700.999	75.88
2704.536	73.88
2708.071	68.88
2711.602	69.88
2715.13	65.88
2718.656	62.88
2722.178	67.88
2725.697	57.88
2729.214	64.88
2732.727	69.88
2736.237	66.88
2739.744	63.88
2743.249	75.88
2746.75	66.88
2750.248	71.88
2753.743	63.88
2757.236	65.88
2760.725	65.88
2764.211	57.88
2767.695	71.88
2771.175	66.88
2774.652	58.88
2778.127	63.88
2781.598	53.88
2785.067	52.88
2788.532	64.88
2791.995	53.88
2795.455	55.88
2798.911	55.88
2802.365	54.88
2805.816	55.88
2809.264	54.88
2812.709	47.88
2816.151	49.88
2819.59	54.88
2823.026	47.88
2826.46	55.88
2829.89	39.88
2833.318	49.88
2836.742	50.88
2840.164	49.88
2843.583	48.88
2846.999	49.88
2850.412	44.88
2853.822	47.88
2857.229	51.88
2860.634	49.88
2864.035	41.88
2867.434	45.88
2870.83	44.88
2874.223	40.88
2877.613	36.88
2881	37.88
2884.385	40.88
2887.766	32.88
2891.145	28.88
2894.521	27.88
2897.894	22.88
2901.264	22.88
2904.631	22.88
2907.996	20.88
2911.358	25.88
2914.717	12.88
2918.073	20.88
2921.426	15.88
2924.777	14.88
2928.124	14.88
2931.469	19.88
2934.811	16.88
2938.15	12.88
2941.487	14.88
2944.821	11.88
2948.152	1.88
2951.48	4.88
2954.805	7.88
2958.128	4.88
2961.447	8.88
2964.765	3.88
2968.079	6.88
2971.39	0.88
2974.699	4.88
2978.005	4.88
2981.308	0.88
2984.609	-0.12
2987.907	1.88
2991.202	0.88
2994.494	3.88
2997.784	2.88
3001.07	6.88
3004.355	-4.12
3007.636	3.88
3010.915	-6.12
3014.191	-0.12
3017.464	-1.12
3020.734	0.88
3024.002	-9.12
3027.267	-2.12
3030.53	-7.12
3033.789	-4.12
3037.046	-14.12
3040.301	-11.12
3043.552	-14.12
3046.801	-5.12
3050.048	-17.12
3053.291	-13.12
3056.532	-16.12
3059.771	-7.12
3063.006	-25.12
3066.239	-20.12
3069.469	-15.12
3072.697	-19.12
3075.922	-16.12
3079.144	-20.12
3082.364	-24.12
3085.581	-20.12
3088.795	-19.12
3092.007	-23.12
3095.216	-24.12
3098.423	-18.12
3101.627	-21.12
3104.828	-18.12
3108.026	-26.12
3111.222	-29.12
3114.416	-19.12
3117.607	-18.12
3120.795	-24.12
3123.98	-23.12
3127.163	-17.12
3130.344	-25.12
3133.521	-26.12
3136.696	-19.12
3139.869	-26.12
3143.039	-27.12
3146.206	-28.12
3149.371	-29.12
3152.533	-28.12
3155.693	-34.12
3158.85	-34.12
3162.005	-29.12
3165.157	-34.12
3168.306	-35.12
3171.453	-33.12
3174.597	-39.12
3177.739	-32.12
3180.878	-43.12
3184.014	-46.12
3187.149	-40.12
3190.28	-40.12
3193.409	-41.12
3196.536	-48.12
3199.659	-42.12
3202.781	-44.12
3205.9	-45.12
3209.016	-55.12
3212.13	-48.12
3215.241	-49.12
3218.35	-48.12
3221.456	-45.12
3224.56	-47.12
3227.661	-49.12
3230.76	-48.12
3233.856	-55.12
3236.95	-51.12
3240.041	-47.12
3243.13	-53.12
3246.216	-47.12
3249.3	-53.12
3252.382	-50.12
3255.46	-43.12
3258.537	-20.12
3261.611	-47.12
3264.682	-49.12
3267.751	-48.12
3270.818	-58.12
3273.882	-51.12
3276.943	-48.12
3280.002	-49.12
3283.059	-54.12
3286.113	-49.12
3289.165	-50.12
3292.214	-54.12
3295.261	-52.12
3298.306	-49.12
3301.348	-51.12
3304.387	-65.12
3307.425	-53.12
3310.459	-52.12
3313.492	-58.12
3316.521	-64.12
3319.549	-55.12
3322.574	-59.12
3325.597	-63.12
3328.617	-56.12
3331.635	-63.12
3334.65	-56.12
3337.663	-58.12
3340.674	-53.12
3343.682	-60.12
3346.688	-64.12
3349.691	-60.12
3352.692	-63.12
3355.691	-60.12
3358.687	-58.12
3361.681	-60.12
3364.673	-67.12
3367.662	-57.12
3370.649	-67.12
3373.633	-59.12
3376.615	-66.12
3379.595	-67.12
3382.572	-63.12
3385.547	-59.12
3388.52	-58.12
3391.49	-66.12
3394.458	-64.12
3397.424	-59.12
3400.387	-64.12
3403.348	-61.12
3406.307	-58.12
3409.263	-69.12
3412.217	-61.12
3415.168	-66.12
3418.118	-63.12
3421.065	-66.12
3424.009	-66.12
3426.951	-67.12
3429.891	-67.12
3432.829	-65.12
3435.764	-68.12
3438.697	-64.12
3441.628	-67.12
3444.557	-67.12
3447.483	-70.12
3450.407	-73.12
3453.328	-65.12
3456.247	-70.12
3459.164	-69.12
3462.079	-70.12
3464.991	-72.12
3467.902	-74.12
3470.809	-74.12
3473.715	-72.12
3476.618	-76.12
3479.519	-66.12
3482.418	-71.12
3485.315	-75.12
3488.209	-80.12
3491.101	-73.12
3493.99	-73.12
3496.878	-72.12
3499.763	-77.12
3502.646	-70.12
3505.527	-75.12
3508.405	-73.12
3511.281	-79.12
3514.155	-72.12
3517.027	-76.12
3519.897	-74.12
3522.764	-71.12
3525.629	-75.12
3528.492	-72.12
3531.352	-74.12
3534.211	-77.12
3537.067	-69.12
3539.921	-72.12
3542.773	-74.12
3545.622	-72.12
3548.469	-78.12
3551.315	-71.12
3554.157	-70.12
3556.998	-76.12
3559.837	-62.12
3562.673	-69.12
3565.507	-79.12
3568.339	-71.12
3571.169	-75.12
3573.996	-73.12
3576.822	-66.12
3579.645	-74.12
3582.466	-75.12
3585.285	-74.12
3588.101	-78.12
3590.916	-77.12
3593.728	-72.12
3596.538	-78.12
3599.346	-74.12
3602.152	-73.12
3604.956	-73.12
3607.757	-78.12
3610.556	-77.12
3613.354	-78.12
3616.149	-82.12
3618.942	-81.12
3621.732	-81.12
3624.521	-76.12
3627.307	-81.12
3630.092	-80.12
3632.874	-79.12
3635.654	-78.12
3638.432	-80.12
3641.208	-82.12
3643.982	-77.12
3646.753	-79.12
3649.523	-87.12
3652.29	-85.12
3655.055	-80.12
3657.818	-82.12
3660.579	-83.12
3663.338	-79.12
3666.095	-80.12
3668.849	-84.12
3671.602	-83.12
3674.352	-83.12
3677.101	-78.12
3679.847	-86.12
3682.591	-76.12
3685.333	-76.12
3688.073	-82.12
3690.811	-82.12
3693.547	-79.12
3696.281	-82.12
3699.013	-80.12
3701.742	-83.12
3704.47	-84.12
3707.195	-79.12
3709.919	-78.12
3712.64	-86.12
3715.359	-79.12
3718.076	-78.12
3720.792	-82.12
3723.505	-81.12
3726.216	-86.12
3728.925	-80.12
3731.632	-85.12
3734.336	-82.12
3737.039	-81.12
3739.74	-76.12
3742.439	-75.12
3745.136	-83.12
3747.83	-85.12
3750.523	-79.12
3753.213	-110.12
3755.902	-83.12
3758.589	-81.12
3761.273	-88.12
3763.956	-81.12
3766.636	-80.12
3769.315	-80.12
3771.991	-77.12
3774.665	-77.12
3777.338	-78.12
3780.008	-89.12
3782.677	-78.12
3785.343	-89.12
3788.007	-88.12
3790.67	-80.12
3793.33	-82.12
3795.989	-73.12
3798.645	-82.12
3801.299	-83.12
3803.952	-81.12
3806.602	-83.12
3809.251	-86.12
3811.897	-82.12
3814.542	-82.12
3817.184	-75.12
3819.825	-78.12
3822.463	-77.12
3825.1	-85.12
3827.735	-80.12
3830.367	-85.12
3832.998	-73.12
3835.627	-74.12
3838.253	-82.12
3840.878	-80.12
3843.501	-81.12
3846.122	-76.12
3848.741	-82.12
3851.358	-77.12
3853.973	-75.12
3856.586	-85.12
3859.197	-75.12
3861.806	-83.12
3864.414	-82.12
3867.019	-73.12
3869.622	-68.12
3872.224	-64.12
3874.823	-44.12
3877.421	-24.12
3880.016	17.88
3882.61	44.88
3885.202	51.88
3887.792	20.88
3890.38	-16.12
3892.966	-54.12
3895.55	-63.12
3898.132	-79.12
3900.713	-79.12
3903.291	-81.12
3905.868	-84.12
3908.442	-85.12
3911.015	-82.12
3913.586	-87.12
3916.155	-82.12
3918.722	-83.12
3921.287	-84.12
3923.85	-88.12
3926.411	-85.12
3928.971	-85.12
3931.528	-83.12
3934.084	-88.12
3936.638	-86.12
3939.19	-84.12
3941.74	-87.12
3944.288	-87.12
3946.834	-83.12
3949.378	-85.12
3951.921	-80.12
3954.462	-83.12
3957	-83.12
3959.537	-79.12
3962.072	-74.12
3964.606	-85.12
3967.137	-79.12
3969.667	-85.12
3972.194	-81.12
3974.72	-79.12
3977.244	-87.12
3979.766	-89.12
3982.286	-80.12
3984.805	-86.12
3987.321	-82.12
3989.836	-82.12
3992.349	-82.12
3994.86	-83.12
3997.369	-83.12
3999.877	-78.12
4002.382	-87.12
4004.886	-87.12
4007.388	-78.12
4009.888	-79.12
4012.386	-81.12
4014.883	-81.12
4017.377	-77.12
4019.87	-78.12
4022.361	-85.12
4024.85	-83.12
4027.338	-75.12
4029.823	-88.12
4032.307	-82.12
4034.789	-78.12
4037.269	-86.12
4039.747	-82.12
4042.224	-78.12
4044.699	-84.12
4047.172	-81.12
4049.643	-78.12
4052.112	-78.12
4054.58	-84.12
4057.046	-77.12
4059.51	-86.12
4061.972	-83.12
4064.432	-78.12
4066.891	-82.12
4069.348	-76.12
4071.803	-78.12
4074.256	-75.12
4076.708	-79.12
4079.158	-81.12
4081.606	-84.12
4084.052	-85.12
4086.497	-81.12
4088.939	-89.12
4091.38	-82.12
4093.819	-83.12
4096.257	-84.12
4098.693	-85.12
4101.127	-83.12
4103.559	-88.12
4105.989	39.88
4108.418	33.88
4110.845	30.88
4113.27	23.88
4115.694	27.88
4118.115	26.88
4120.535	-80.12
4122.954	-77.12
4125.37	-77.12
4127.785	-84.12
4130.198	-80.12
4132.609	-83.12
4135.019	-86.12
4137.427	-84.12
4139.833	-81.12
4142.237	-87.12