File: Data/Raman/2017-08-29 - Alluminum 2/Aug 29 2017 - Aluminum 2/EC 11 1_RamanShift_2.txt
Data from EC 11 1_RamanShift_2.txt Node

Date: Tue Aug 29 12:20:37 IDT 2017
User: aro
Spectrometer: QEPB0276
Trigger mode: 0
Integration Time (sec): 3.000000E1
Scans to average: 1
Electric dark correction enabled: true
Nonlinearity correction enabled: false
Boxcar width: 0
XAxis mode: Raman Shifts
Number of Pixels in Spectrum: 1044
>>>>>Begin Spectral Data<<<<<
160.701	9.38
166.742	41.38
172.777	137.38
178.805	440.38
184.826	1119.38
190.841	2312.38
196.849	3732.38
202.85	4793.38
208.845	5262.38
214.833	5401.38
220.815	5504.38
226.789	5633.38
232.758	5861.38
238.719	6011.38
244.674	6081.38
250.623	6196.38
256.565	6253.38
262.5	6335.38
268.429	6395.38
274.351	6453.38
280.267	6541.38
286.176	6643.38
292.079	6687.38
297.975	6732.38
303.865	6767.38
309.748	6835.38
315.625	6885.38
321.495	6893.38
327.359	6925.38
333.217	6943.38
339.068	6973.38
344.912	6963.38
350.751	6969.38
356.583	6998.38
362.408	7036.38
368.227	6986.38
374.04	7109.38
379.847	7220.38
385.647	7310.38
391.44	7233.38
397.228	7147.38
403.009	7146.38
408.784	7356.38
414.553	7753.38
420.315	8237.38
426.071	8275.38
431.821	7779.38
437.565	7291.38
443.302	7131.38
449.033	7065.38
454.758	7026.38
460.477	6983.38
466.189	6917.38
471.896	6894.38
477.596	6843.38
483.29	6850.38
488.978	6825.38
494.66	6766.38
500.335	6678.38
506.005	6507.38
511.668	6292.38
517.325	6149.38
522.977	5998.38
528.622	5908.38
534.261	5811.38
539.894	5752.38
545.521	5722.38
551.141	5698.38
556.756	5662.38
562.365	5643.38
567.968	5624.38
573.565	5612.38
579.155	5584.38
584.74	5576.38
590.319	5546.38
595.892	5546.38
601.459	5491.38
607.02	5492.38
612.575	5424.38
618.124	5379.38
623.667	5360.38
629.204	5351.38
634.735	5322.38
640.261	5450.38
645.781	5563.38
651.294	5614.38
656.802	5485.38
662.304	5345.38
667.8	5211.38
673.29	5193.38
678.775	5173.38
684.254	5142.38
689.726	5143.38
695.193	5080.38
700.655	5036.38
706.11	5023.38
711.56	4989.38
717.004	4977.38
722.442	4967.38
727.874	4960.38
733.301	4937.38
738.722	4975.38
744.137	4956.38
749.547	4996.38
754.951	5056.38
760.349	5003.38
765.741	4977.38
771.128	4961.38
776.509	4954.38
781.885	4981.38
787.254	5000.38
792.618	4981.38
797.977	4985.38
803.33	4923.38
808.677	4911.38
814.019	4872.38
819.355	4831.38
824.686	4830.38
830.011	4805.38
835.33	4788.38
840.644	4774.38
845.952	4749.38
851.255	4751.38
856.552	4735.38
861.844	4739.38
867.13	4683.38
872.41	4670.38
877.686	4652.38
882.955	4626.38
888.219	4583.38
893.478	4526.38
898.731	4498.38
903.979	4466.38
909.221	4453.38
914.458	4439.38
919.69	4459.38
924.916	4445.38
930.136	4456.38
935.351	4475.38
940.561	4480.38
945.766	4444.38
950.965	4456.38
956.158	4404.38
961.347	4361.38
966.529	4318.38
971.707	4260.38
976.879	4219.38
982.046	4165.38
987.208	4160.38
992.364	4164.38
997.515	4185.38
1002.66	4221.38
1007.801	4253.38
1012.936	4288.38
1018.066	4313.38
1023.19	4288.38
1028.309	4316.38
1033.423	4296.38
1038.532	4281.38
1043.636	4267.38
1048.734	4205.38
1053.827	4150.38
1058.915	4102.38
1063.998	4082.38
1069.075	4065.38
1074.147	4054.38
1079.214	4083.38
1084.276	4080.38
1089.333	4100.38
1094.385	4110.38
1099.431	4099.38
1104.472	4119.38
1109.509	4096.38
1114.54	4023.38
1119.565	3968.38
1124.586	3915.38
1129.602	3875.38
1134.613	3839.38
1139.618	3807.38
1144.619	3831.38
1149.614	3807.38
1154.604	3824.38
1159.589	3857.38
1164.57	3850.38
1169.545	3859.38
1174.515	3832.38
1179.48	3825.38
1184.44	3813.38
1189.395	3770.38
1194.345	3745.38
1199.29	3723.38
1204.23	3690.38
1209.165	3720.38
1214.095	3753.38
1219.021	3739.38
1223.941	3772.38
1228.856	3785.38
1233.766	3765.38
1238.672	3758.38
1243.572	3774.38
1248.467	3728.38
1253.358	3662.38
1258.244	3615.38
1263.124	3551.38
1268	3487.38
1272.871	3428.38
1277.737	3438.38
1282.599	3417.38
1287.455	3386.38
1292.306	3385.38
1297.153	3416.38
1301.995	3383.38
1306.832	3415.38
1311.664	3420.38
1316.491	3373.38
1321.314	3364.38
1326.132	3320.38
1330.945	3238.38
1335.753	3167.38
1340.556	3104.38
1345.354	3058.38
1350.148	2987.38
1354.937	3026.38
1359.722	2998.38
1364.501	3011.38
1369.276	3025.38
1374.046	3052.38
1378.811	3070.38
1383.572	3111.38
1388.327	3098.38
1393.079	3095.38
1397.825	3041.38
1402.567	3003.38
1407.304	2963.38
1412.036	2903.38
1416.764	2872.38
1421.487	2851.38
1426.205	2856.38
1430.919	2854.38
1435.628	2880.38
1440.333	2879.38
1445.032	2904.38
1449.727	2879.38
1454.418	2870.38
1459.104	2802.38
1463.785	2770.38
1468.462	2753.38
1473.134	2686.38
1477.802	2637.38
1482.465	2630.38
1487.123	2619.38
1491.777	2611.38
1496.426	2638.38
1501.071	2631.38
1505.711	2708.38
1510.347	2720.38
1514.978	2774.38
1519.604	2778.38
1524.226	2814.38
1528.844	2793.38
1533.457	2767.38
1538.065	2749.38
1542.669	2709.38
1547.269	2665.38
1551.864	2654.38
1556.454	2620.38
1561.041	2650.38
1565.622	2592.38
1570.199	2562.38
1574.772	2549.38
1579.34	2564.38
1583.904	2546.38
1588.464	2506.38
1593.019	2502.38
1597.569	2467.38
1602.115	2414.38
1606.657	2372.38
1611.195	2339.38
1615.728	2291.38
1620.256	2274.38
1624.78	2254.38
1629.3	2221.38
1633.816	2221.38
1638.327	2230.38
1642.834	2228.38
1647.336	2250.38
1651.834	2255.38
1656.328	2267.38
1660.817	2254.38
1665.302	2242.38
1669.783	2240.38
1674.259	2201.38
1678.732	2165.38
1683.199	2127.38
1687.663	2087.38
1692.122	2046.38
1696.577	2049.38
1701.028	2080.38
1705.474	2090.38
1709.917	2132.38
1714.355	2167.38
1718.788	2167.38
1723.218	2139.38
1727.643	2139.38
1732.064	2100.38
1736.481	2047.38
1740.893	2001.38
1745.301	1960.38
1749.705	1905.38
1754.105	1874.38
1758.501	1831.38
1762.893	1781.38
1767.28	1749.38
1771.663	1709.38
1776.042	1693.38
1780.417	1682.38
1784.787	1674.38
1789.154	1711.38
1793.516	1733.38
1797.874	1775.38
1802.228	1785.38
1806.578	1809.38
1810.924	1822.38
1815.266	1791.38
1819.603	1753.38
1823.937	1732.38
1828.266	1688.38
1832.591	1690.38
1836.913	1655.38
1841.23	1639.38
1845.543	1639.38
1849.852	1627.38
1854.156	1628.38
1858.457	1624.38
1862.754	1593.38
1867.047	1608.38
1871.335	1617.38
1875.62	1618.38
1879.9	1592.38
1884.177	1609.38
1888.449	1589.38
1892.718	1561.38
1896.982	1559.38
1901.243	1566.38
1905.499	1532.38
1909.752	1534.38
1914	1531.38
1918.245	1561.38
1922.485	1573.38
1926.722	1580.38
1930.954	1588.38
1935.183	1606.38
1939.408	1621.38
1943.628	1647.38
1947.845	1618.38
1952.058	1613.38
1956.267	1582.38
1960.472	1560.38
1964.673	1510.38
1968.87	1486.38
1973.063	1467.38
1977.252	1443.38
1981.438	1405.38
1985.619	1389.38
1989.797	1365.38
1993.971	1370.38
1998.14	1349.38
2002.306	1335.38
2006.469	1331.38
2010.627	1322.38
2014.781	1310.38
2018.932	1300.38
2023.078	1278.38
2027.221	1259.38
2031.36	1236.38
2035.495	1235.38
2039.627	1198.38
2043.754	1191.38
2047.878	1188.38
2051.998	1169.38
2056.114	1172.38
2060.226	1171.38
2064.334	1174.38
2068.439	1185.38
2072.54	1188.38
2076.637	1189.38
2080.73	1193.38
2084.82	1213.38
2088.906	1205.38
2092.988	1220.38
2097.066	1217.38
2101.14	1201.38
2105.211	1194.38
2109.278	1197.38
2113.342	1170.38
2117.401	1159.38
2121.457	1124.38
2125.509	1130.38
2129.558	1130.38
2133.602	1115.38
2137.643	1107.38
2141.681	1098.38
2145.714	1080.38
2149.744	1086.38
2153.77	1057.38
2157.793	1052.38
2161.812	1051.38
2165.827	1034.38
2169.838	1024.38
2173.846	1016.38
2177.851	995.38
2181.851	971.38
2185.848	966.38
2189.841	957.38
2193.831	938.38
2197.817	949.38
2201.799	940.38
2205.778	943.38
2209.753	921.38
2213.725	944.38
2217.693	933.38
2221.657	933.38
2225.618	944.38
2229.575	925.38
2233.529	930.38
2237.479	919.38
2241.425	904.38
2245.368	895.38
2249.307	883.38
2253.243	866.38
2257.175	851.38
2261.104	851.38
2265.029	845.38
2268.95	835.38
2272.868	832.38
2276.783	817.38
2280.694	802.38
2284.601	817.38
2288.505	812.38
2292.405	791.38
2296.302	787.38
2300.195	766.38
2304.085	772.38
2307.971	760.38
2311.854	746.38
2315.734	737.38
2319.609	725.38
2323.482	715.38
2327.351	733.38
2331.216	731.38
2335.078	749.38
2338.937	731.38
2342.792	698.38
2346.643	686.38
2350.492	699.38
2354.336	688.38
2358.178	703.38
2362.015	699.38
2365.85	701.38
2369.681	702.38
2373.508	699.38
2377.333	703.38
2381.153	709.38
2384.971	707.38
2388.785	702.38
2392.595	681.38
2396.402	688.38
2400.206	687.38
2404.007	682.38
2407.804	673.38
2411.597	673.38
2415.388	661.38
2419.174	662.38
2422.958	662.38
2426.738	647.38
2430.515	656.38
2434.289	633.38
2438.059	644.38
2441.825	632.38
2445.589	622.38
2449.349	609.38
2453.106	602.38
2456.859	601.38
2460.61	596.38
2464.356	578.38
2468.1	586.38
2471.84	568.38
2475.577	583.38
2479.311	564.38
2483.041	562.38
2486.768	575.38
2490.492	553.38
2494.213	555.38
2497.93	561.38
2501.644	559.38
2505.355	562.38
2509.062	557.38
2512.766	551.38
2516.467	553.38
2520.165	545.38
2523.859	547.38
2527.551	536.38
2531.239	533.38
2534.923	542.38
2538.605	524.38
2542.283	530.38
2545.958	530.38
2549.63	526.38
2553.299	527.38
2556.964	526.38
2560.626	517.38
2564.285	528.38
2567.941	520.38
2571.594	523.38
2575.243	507.38
2578.89	518.38
2582.533	505.38
2586.173	500.38
2589.809	496.38
2593.443	485.38
2597.073	494.38
2600.701	477.38
2604.325	461.38
2607.946	470.38
2611.564	455.38
2615.178	461.38
2618.79	453.38
2622.398	455.38
2626.004	440.38
2629.606	436.38
2633.205	427.38
2636.801	419.38
2640.394	416.38
2643.983	399.38
2647.57	395.38
2651.153	390.38
2654.734	380.38
2658.311	381.38
2661.885	369.38
2665.456	370.38
2669.025	362.38
2672.589	348.38
2676.151	345.38
2679.71	337.38
2683.266	336.38
2686.819	325.38
2690.368	326.38
2693.915	312.38
2697.458	300.38
2700.999	295.38
2704.536	297.38
2708.071	280.38
2711.602	281.38
2715.13	268.38
2718.656	256.38
2722.178	253.38
2725.697	251.38
2729.214	246.38
2732.727	257.38
2736.237	244.38
2739.744	238.38
2743.249	258.38
2746.75	249.38
2750.248	249.38
2753.743	251.38
2757.236	256.38
2760.725	240.38
2764.211	242.38
2767.695	253.38
2771.175	248.38
2774.652	234.38
2778.127	247.38
2781.598	233.38
2785.067	229.38
2788.532	236.38
2791.995	226.38
2795.455	236.38
2798.911	233.38
2802.365	221.38
2805.816	233.38
2809.264	220.38
2812.709	219.38
2816.151	221.38
2819.59	223.38
2823.026	214.38
2826.46	210.38
2829.89	206.38
2833.318	214.38
2836.742	210.38
2840.164	206.38
2843.583	206.38
2846.999	218.38
2850.412	203.38
2853.822	207.38
2857.229	203.38
2860.634	203.38
2864.035	194.38
2867.434	194.38
2870.83	193.38
2874.223	195.38
2877.613	174.38
2881	175.38
2884.385	175.38
2887.766	173.38
2891.145	162.38
2894.521	160.38
2897.894	155.38
2901.264	151.38
2904.631	144.38
2907.996	133.38
2911.358	130.38
2914.717	133.38
2918.073	129.38
2921.426	126.38
2924.777	120.38
2928.124	120.38
2931.469	119.38
2934.811	114.38
2938.15	106.38
2941.487	102.38
2944.821	102.38
2948.152	89.38
2951.48	92.38
2954.805	94.38
2958.128	85.38
2961.447	84.38
2964.765	77.38
2968.079	75.38
2971.39	76.38
2974.699	71.38
2978.005	76.38
2981.308	70.38
2984.609	62.38
2987.907	69.38
2991.202	62.38
2994.494	67.38
2997.784	73.38
3001.07	68.38
3004.355	60.38
3007.636	53.38
3010.915	51.38
3014.191	55.38
3017.464	52.38
3020.734	55.38
3024.002	42.38
3027.267	31.38
3030.53	39.38
3033.789	35.38
3037.046	29.38
3040.301	20.38
3043.552	14.38
3046.801	17.38
3050.048	22.38
3053.291	16.38
3056.532	16.38
3059.771	24.38
3063.006	12.38
3066.239	12.38
3069.469	17.38
3072.697	8.38
3075.922	12.38
3079.144	10.38
3082.364	3.38
3085.581	6.38
3088.795	-0.62
3092.007	-5.62
3095.216	1.38
3098.423	-4.62
3101.627	6.38
3104.828	-0.62
3108.026	-0.62
3111.222	-8.62
3114.416	-5.62
3117.607	-6.62
3120.795	-8.62
3123.98	-8.62
3127.163	-6.62
3130.344	-7.62
3133.521	-19.62
3136.696	-4.62
3139.869	-11.62
3143.039	-18.62
3146.206	-17.62
3149.371	-14.62
3152.533	-22.62
3155.693	-22.62
3158.85	-25.62
3162.005	-34.62
3165.157	-35.62
3168.306	-26.62
3171.453	-34.62
3174.597	-36.62
3177.739	-31.62
3180.878	-41.62
3184.014	-46.62
3187.149	-44.62
3190.28	-40.62
3193.409	-47.62
3196.536	-52.62
3199.659	-58.62
3202.781	-53.62
3205.9	-61.62
3209.016	-69.62
3212.13	-69.62
3215.241	-66.62
3218.35	-56.62
3221.456	-66.62
3224.56	-65.62
3227.661	-67.62
3230.76	-71.62
3233.856	-83.62
3236.95	-75.62
3240.041	-68.62
3243.13	-79.62
3246.216	-73.62
3249.3	-74.62
3252.382	-76.62
3255.46	-75.62
3258.537	-51.62
3261.611	-77.62
3264.682	-81.62
3267.751	-74.62
3270.818	-79.62
3273.882	-88.62
3276.943	-82.62
3280.002	-79.62
3283.059	-85.62
3286.113	-81.62
3289.165	-80.62
3292.214	-91.62
3295.261	-84.62
3298.306	-78.62
3301.348	-88.62
3304.387	-87.62
3307.425	-89.62
3310.459	-94.62
3313.492	-90.62
3316.521	-97.62
3319.549	-90.62
3322.574	-96.62
3325.597	-98.62
3328.617	-97.62
3331.635	-97.62
3334.65	-95.62
3337.663	-101.62
3340.674	-91.62
3343.682	-101.62
3346.688	-103.62
3349.691	-98.62
3352.692	-103.62
3355.691	-101.62
3358.687	-102.62
3361.681	-104.62
3364.673	-107.62
3367.662	-100.62
3370.649	-107.62
3373.633	-103.62
3376.615	-108.62
3379.595	-112.62
3382.572	-104.62
3385.547	-100.62
3388.52	-105.62
3391.49	-109.62
3394.458	-109.62
3397.424	-105.62
3400.387	-109.62
3403.348	-109.62
3406.307	-112.62
3409.263	-117.62
3412.217	-112.62
3415.168	-110.62
3418.118	-113.62
3421.065	-117.62
3424.009	-115.62
3426.951	-114.62
3429.891	-117.62
3432.829	-119.62
3435.764	-116.62
3438.697	-114.62
3441.628	-119.62
3444.557	-116.62
3447.483	-124.62
3450.407	-127.62
3453.328	-117.62
3456.247	-122.62
3459.164	-121.62
3462.079	-125.62
3464.991	-129.62
3467.902	-128.62
3470.809	-130.62
3473.715	-122.62
3476.618	-130.62
3479.519	-119.62
3482.418	-127.62
3485.315	-127.62
3488.209	-133.62
3491.101	-126.62
3493.99	-124.62
3496.878	-128.62
3499.763	-135.62
3502.646	-123.62
3505.527	-135.62
3508.405	-129.62
3511.281	-135.62
3514.155	-127.62
3517.027	-130.62
3519.897	-127.62
3522.764	-128.62
3525.629	-135.62
3528.492	-134.62
3531.352	-127.62
3534.211	-130.62
3537.067	-129.62
3539.921	-130.62
3542.773	-133.62
3545.622	-128.62
3548.469	-135.62
3551.315	-125.62
3554.157	-131.62
3556.998	-133.62
3559.837	-130.62
3562.673	-128.62
3565.507	-134.62
3568.339	-134.62
3571.169	-132.62
3573.996	-135.62
3576.822	-132.62
3579.645	-139.62
3582.466	-136.62
3585.285	-136.62
3588.101	-143.62
3590.916	-136.62
3593.728	-136.62
3596.538	-143.62
3599.346	-140.62
3602.152	-143.62
3604.956	-135.62
3607.757	-142.62
3610.556	-138.62
3613.354	-139.62
3616.149	-147.62
3618.942	-143.62
3621.732	-146.62
3624.521	-138.62
3627.307	-146.62
3630.092	-146.62
3632.874	-146.62
3635.654	-139.62
3638.432	-140.62
3641.208	-142.62
3643.982	-139.62
3646.753	-143.62
3649.523	-148.62
3652.29	-147.62
3655.055	-143.62
3657.818	-148.62
3660.579	-148.62
3663.338	-141.62
3666.095	-146.62
3668.849	-150.62
3671.602	-144.62
3674.352	-145.62
3677.101	-138.62
3679.847	-148.62
3682.591	-144.62
3685.333	-140.62
3688.073	-145.62
3690.811	-144.62
3693.547	-139.62
3696.281	-144.62
3699.013	-138.62
3701.742	-147.62
3704.47	-147.62
3707.195	-143.62
3709.919	-143.62
3712.64	-146.62
3715.359	-141.62
3718.076	-140.62
3720.792	-148.62
3723.505	-144.62
3726.216	-151.62
3728.925	-144.62
3731.632	-148.62
3734.336	-145.62
3737.039	-147.62
3739.74	-144.62
3742.439	-142.62
3745.136	-149.62
3747.83	-144.62
3750.523	-142.62
3753.213	-159.62
3755.902	-148.62
3758.589	-149.62
3761.273	-149.62
3763.956	-144.62
3766.636	-142.62
3769.315	-149.62
3771.991	-147.62
3774.665	-147.62
3777.338	-146.62
3780.008	-156.62
3782.677	-147.62
3785.343	-152.62
3788.007	-156.62
3790.67	-147.62
3793.33	-149.62
3795.989	-148.62
3798.645	-154.62
3801.299	-151.62
3803.952	-149.62
3806.602	-153.62
3809.251	-149.62
3811.897	-153.62
3814.542	-149.62
3817.184	-152.62
3819.825	-153.62
3822.463	-150.62
3825.1	-151.62
3827.735	-152.62
3830.367	-152.62
3832.998	-147.62
3835.627	-147.62
3838.253	-152.62
3840.878	-146.62
3843.501	-144.62
3846.122	-150.62
3848.741	-150.62
3851.358	-152.62
3853.973	-145.62
3856.586	-154.62
3859.197	-146.62
3861.806	-151.62
3864.414	-144.62
3867.019	-145.62
3869.622	-144.62
3872.224	-134.62
3874.823	-115.62
3877.421	-101.62
3880.016	-69.62
3882.61	-38.62
3885.202	-22.62
3887.792	-52.62
3890.38	-89.62
3892.966	-119.62
3895.55	-133.62
3898.132	-145.62
3900.713	-150.62
3903.291	-151.62
3905.868	-153.62
3908.442	-151.62
3911.015	-149.62
3913.586	-153.62
3916.155	-147.62
3918.722	-150.62
3921.287	-154.62
3923.85	-158.62
3926.411	-150.62
3928.971	-154.62
3931.528	-151.62
3934.084	-154.62
3936.638	-150.62
3939.19	-157.62
3941.74	-153.62
3944.288	-152.62
3946.834	-150.62
3949.378	-154.62
3951.921	-144.62
3954.462	-145.62
3957	-149.62
3959.537	-147.62
3962.072	-143.62
3964.606	-150.62
3967.137	-146.62
3969.667	-147.62
3972.194	-153.62
3974.72	-151.62
3977.244	-151.62
3979.766	-152.62
3982.286	-148.62
3984.805	-150.62
3987.321	-146.62
3989.836	-149.62
3992.349	-148.62
3994.86	-147.62
3997.369	-150.62
3999.877	-145.62
4002.382	-147.62
4004.886	-147.62
4007.388	-140.62
4009.888	-142.62
4012.386	-145.62
4014.883	-146.62
4017.377	-140.62
4019.87	-145.62
4022.361	-150.62
4024.85	-151.62
4027.338	-139.62
4029.823	-147.62
4032.307	-144.62
4034.789	-150.62
4037.269	-147.62
4039.747	-149.62
4042.224	-146.62
4044.699	-146.62
4047.172	-144.62
4049.643	-145.62
4052.112	-151.62
4054.58	-151.62
4057.046	-145.62
4059.51	-152.62
4061.972	-148.62
4064.432	-145.62
4066.891	-152.62
4069.348	-148.62
4071.803	-149.62
4074.256	-143.62
4076.708	-147.62
4079.158	-147.62
4081.606	-148.62
4084.052	-153.62
4086.497	-153.62
4088.939	-147.62
4091.38	-149.62
4093.819	-149.62
4096.257	-156.62
4098.693	-159.62
4101.127	-159.62
4103.559	-159.62
4105.989	-14.62
4108.418	-14.62
4110.845	-15.62
4113.27	-19.62
4115.694	-14.62
4118.115	-4.62
4120.535	-145.62
4122.954	-146.62
4125.37	-148.62
4127.785	-148.62
4130.198	-149.62
4132.609	-147.62
4135.019	-156.62
4137.427	-156.62
4139.833	-153.62
4142.237	-161.62