File: Data/Raman/2017-08-29 - Alluminum 2/Aug 29 2017 - Aluminum 2/EC 11 1_RamanShift_1.txt
Data from EC 11 1_RamanShift_1.txt Node

Date: Tue Aug 29 12:20:07 IDT 2017
User: aro
Spectrometer: QEPB0276
Trigger mode: 0
Integration Time (sec): 3.000000E1
Scans to average: 1
Electric dark correction enabled: true
Nonlinearity correction enabled: false
Boxcar width: 0
XAxis mode: Raman Shifts
Number of Pixels in Spectrum: 1044
>>>>>Begin Spectral Data<<<<<
160.701	3.75
166.742	44.75
172.777	171.75
178.805	568.75
184.826	1467.75
190.841	3037.75
196.849	4940.75
202.85	6366.75
208.845	6981.75
214.833	7155.75
220.815	7302.75
226.789	7500.75
232.758	7728.75
238.719	7954.75
244.674	8086.75
250.623	8249.75
256.565	8297.75
262.5	8381.75
268.429	8446.75
274.351	8552.75
280.267	8672.75
286.176	8738.75
292.079	8867.75
297.975	8911.75
303.865	9002.75
309.748	9020.75
315.625	9029.75
321.495	9084.75
327.359	9092.75
333.217	9089.75
339.068	9132.75
344.912	9138.75
350.751	9139.75
356.583	9106.75
362.408	9162.75
368.227	9206.75
374.04	9232.75
379.847	9374.75
385.647	9458.75
391.44	9417.75
397.228	9253.75
403.009	9306.75
408.784	9488.75
414.553	9862.75
420.315	10366.75
426.071	10370.75
431.821	9855.75
437.565	9418.75
443.302	9283.75
449.033	9184.75
454.758	9102.75
460.477	9059.75
466.189	9006.75
471.896	8947.75
477.596	8905.75
483.29	8876.75
488.978	8859.75
494.66	8786.75
500.335	8712.75
506.005	8485.75
511.668	8335.75
517.325	8133.75
522.977	7988.75
528.622	7914.75
534.261	7835.75
539.894	7739.75
545.521	7696.75
551.141	7646.75
556.756	7627.75
562.365	7573.75
567.968	7551.75
573.565	7537.75
579.155	7543.75
584.74	7476.75
590.319	7488.75
595.892	7409.75
601.459	7422.75
607.02	7352.75
612.575	7351.75
618.124	7251.75
623.667	7208.75
629.204	7147.75
634.735	7161.75
640.261	7279.75
645.781	7356.75
651.294	7434.75
656.802	7280.75
662.304	7151.75
667.8	7036.75
673.29	6959.75
678.775	6884.75
684.254	6920.75
689.726	6880.75
695.193	6839.75
700.655	6789.75
706.11	6744.75
711.56	6708.75
717.004	6680.75
722.442	6662.75
727.874	6613.75
733.301	6642.75
738.722	6588.75
744.137	6611.75
749.547	6719.75
754.951	6666.75
760.349	6678.75
765.741	6629.75
771.128	6616.75
776.509	6599.75
781.885	6612.75
787.254	6627.75
792.618	6637.75
797.977	6591.75
803.33	6558.75
808.677	6499.75
814.019	6438.75
819.355	6406.75
824.686	6346.75
830.011	6312.75
835.33	6315.75
840.644	6347.75
845.952	6314.75
851.255	6315.75
856.552	6294.75
861.844	6285.75
867.13	6271.75
872.41	6224.75
877.686	6196.75
882.955	6135.75
888.219	6051.75
893.478	6025.75
898.731	5964.75
903.979	5919.75
909.221	5876.75
914.458	5877.75
919.69	5905.75
924.916	5846.75
930.136	5883.75
935.351	5893.75
940.561	5919.75
945.766	5874.75
950.965	5895.75
956.158	5823.75
961.347	5748.75
966.529	5691.75
971.707	5600.75
976.879	5573.75
982.046	5505.75
987.208	5484.75
992.364	5466.75
997.515	5513.75
1002.66	5529.75
1007.801	5570.75
1012.936	5632.75
1018.066	5633.75
1023.19	5647.75
1028.309	5671.75
1033.423	5662.75
1038.532	5594.75
1043.636	5521.75
1048.734	5498.75
1053.827	5420.75
1058.915	5367.75
1063.998	5351.75
1069.075	5292.75
1074.147	5319.75
1079.214	5332.75
1084.276	5335.75
1089.333	5349.75
1094.385	5371.75
1099.431	5363.75
1104.472	5379.75
1109.509	5294.75
1114.54	5251.75
1119.565	5143.75
1124.586	5093.75
1129.602	5038.75
1134.613	4991.75
1139.618	4994.75
1144.619	4954.75
1149.614	4984.75
1154.604	4978.75
1159.589	5000.75
1164.57	4974.75
1169.545	5008.75
1174.515	4992.75
1179.48	4956.75
1184.44	4929.75
1189.395	4880.75
1194.345	4843.75
1199.29	4800.75
1204.23	4810.75
1209.165	4814.75
1214.095	4857.75
1219.021	4876.75
1223.941	4892.75
1228.856	4861.75
1233.766	4893.75
1238.672	4873.75
1243.572	4858.75
1248.467	4798.75
1253.358	4738.75
1258.244	4654.75
1263.124	4569.75
1268	4507.75
1272.871	4475.75
1277.737	4421.75
1282.599	4384.75
1287.455	4399.75
1292.306	4400.75
1297.153	4411.75
1301.995	4433.75
1306.832	4393.75
1311.664	4409.75
1316.491	4383.75
1321.314	4332.75
1326.132	4272.75
1330.945	4173.75
1335.753	4098.75
1340.556	4008.75
1345.354	3913.75
1350.148	3863.75
1354.937	3827.75
1359.722	3834.75
1364.501	3839.75
1369.276	3872.75
1374.046	3905.75
1378.811	3977.75
1383.572	4018.75
1388.327	4015.75
1393.079	3994.75
1397.825	3914.75
1402.567	3808.75
1407.304	3759.75
1412.036	3707.75
1416.764	3702.75
1421.487	3645.75
1426.205	3667.75
1430.919	3639.75
1435.628	3665.75
1440.333	3677.75
1445.032	3681.75
1449.727	3685.75
1454.418	3658.75
1459.104	3600.75
1463.785	3533.75
1468.462	3475.75
1473.134	3416.75
1477.802	3370.75
1482.465	3355.75
1487.123	3341.75
1491.777	3327.75
1496.426	3332.75
1501.071	3390.75
1505.711	3432.75
1510.347	3442.75
1514.978	3491.75
1519.604	3541.75
1524.226	3552.75
1528.844	3511.75
1533.457	3531.75
1538.065	3494.75
1542.669	3452.75
1547.269	3360.75
1551.864	3351.75
1556.454	3327.75
1561.041	3309.75
1565.622	3265.75
1570.199	3250.75
1574.772	3232.75
1579.34	3219.75
1583.904	3208.75
1588.464	3188.75
1593.019	3147.75
1597.569	3135.75
1602.115	3080.75
1606.657	3036.75
1611.195	2960.75
1615.728	2904.75
1620.256	2876.75
1624.78	2833.75
1629.3	2832.75
1633.816	2821.75
1638.327	2814.75
1642.834	2845.75
1647.336	2842.75
1651.834	2840.75
1656.328	2848.75
1660.817	2853.75
1665.302	2848.75
1669.783	2790.75
1674.259	2752.75
1678.732	2731.75
1683.199	2664.75
1687.663	2620.75
1692.122	2577.75
1696.577	2550.75
1701.028	2586.75
1705.474	2606.75
1709.917	2673.75
1714.355	2697.75
1718.788	2716.75
1723.218	2697.75
1727.643	2666.75
1732.064	2629.75
1736.481	2575.75
1740.893	2529.75
1745.301	2467.75
1749.705	2419.75
1754.105	2361.75
1758.501	2282.75
1762.893	2232.75
1767.28	2167.75
1771.663	2139.75
1776.042	2121.75
1780.417	2097.75
1784.787	2106.75
1789.154	2117.75
1793.516	2162.75
1797.874	2200.75
1802.228	2213.75
1806.578	2254.75
1810.924	2240.75
1815.266	2236.75
1819.603	2185.75
1823.937	2156.75
1828.266	2101.75
1832.591	2081.75
1836.913	2062.75
1841.23	2055.75
1845.543	2024.75
1849.852	2010.75
1854.156	2006.75
1858.457	1991.75
1862.754	2002.75
1867.047	1994.75
1871.335	1990.75
1875.62	2002.75
1879.9	1979.75
1884.177	1969.75
1888.449	1952.75
1892.718	1935.75
1896.982	1912.75
1901.243	1904.75
1905.499	1885.75
1909.752	1890.75
1914	1880.75
1918.245	1913.75
1922.485	1918.75
1926.722	1931.75
1930.954	1954.75
1935.183	1989.75
1939.408	1991.75
1943.628	2013.75
1947.845	1986.75
1952.058	1983.75
1956.267	1946.75
1960.472	1905.75
1964.673	1854.75
1968.87	1820.75
1973.063	1781.75
1977.252	1742.75
1981.438	1726.75
1985.619	1696.75
1989.797	1680.75
1993.971	1659.75
1998.14	1636.75
2002.306	1646.75
2006.469	1609.75
2010.627	1623.75
2014.781	1598.75
2018.932	1584.75
2023.078	1559.75
2027.221	1515.75
2031.36	1516.75
2035.495	1482.75
2039.627	1472.75
2043.754	1431.75
2047.878	1430.75
2051.998	1414.75
2056.114	1407.75
2060.226	1412.75
2064.334	1424.75
2068.439	1430.75
2072.54	1419.75
2076.637	1442.75
2080.73	1463.75
2084.82	1457.75
2088.906	1464.75
2092.988	1477.75
2097.066	1463.75
2101.14	1435.75
2105.211	1426.75
2109.278	1427.75
2113.342	1400.75
2117.401	1393.75
2121.457	1376.75
2125.509	1364.75
2129.558	1357.75
2133.602	1345.75
2137.643	1332.75
2141.681	1335.75
2145.714	1308.75
2149.744	1297.75
2153.77	1289.75
2157.793	1278.75
2161.812	1266.75
2165.827	1246.75
2169.838	1213.75
2173.846	1228.75
2177.851	1176.75
2181.851	1166.75
2185.848	1162.75
2189.841	1154.75
2193.831	1130.75
2197.817	1127.75
2201.799	1126.75
2205.778	1115.75
2209.753	1113.75
2213.725	1116.75
2217.693	1119.75
2221.657	1116.75
2225.618	1104.75
2229.575	1114.75
2233.529	1099.75
2237.479	1096.75
2241.425	1076.75
2245.368	1075.75
2249.307	1052.75
2253.243	1039.75
2257.175	1020.75
2261.104	1018.75
2265.029	995.75
2268.95	983.75
2272.868	987.75
2276.783	983.75
2280.694	957.75
2284.601	945.75
2288.505	963.75
2292.405	944.75
2296.302	925.75
2300.195	922.75
2304.085	911.75
2307.971	901.75
2311.854	880.75
2315.734	880.75
2319.609	875.75
2323.482	846.75
2327.351	861.75
2331.216	883.75
2335.078	869.75
2338.937	854.75
2342.792	821.75
2346.643	824.75
2350.492	826.75
2354.336	830.75
2358.178	830.75
2362.015	843.75
2365.85	837.75
2369.681	841.75
2373.508	831.75
2377.333	848.75
2381.153	835.75
2384.971	832.75
2388.785	838.75
2392.595	811.75
2396.402	808.75
2400.206	805.75
2404.007	809.75
2407.804	793.75
2411.597	785.75
2415.388	786.75
2419.174	779.75
2422.958	775.75
2426.738	774.75
2430.515	771.75
2434.289	757.75
2438.059	743.75
2441.825	741.75
2445.589	743.75
2449.349	737.75
2453.106	713.75
2456.859	717.75
2460.61	703.75
2464.356	685.75
2468.1	674.75
2471.84	671.75
2475.577	686.75
2479.311	664.75
2483.041	660.75
2486.768	657.75
2490.492	656.75
2494.213	665.75
2497.93	658.75
2501.644	646.75
2505.355	639.75
2509.062	643.75
2512.766	650.75
2516.467	649.75
2520.165	641.75
2523.859	616.75
2527.551	624.75
2531.239	616.75
2534.923	619.75
2538.605	616.75
2542.283	614.75
2545.958	614.75
2549.63	621.75
2553.299	624.75
2556.964	607.75
2560.626	608.75
2564.285	604.75
2567.941	606.75
2571.594	605.75
2575.243	591.75
2578.89	580.75
2582.533	574.75
2586.173	584.75
2589.809	575.75
2593.443	563.75
2597.073	559.75
2600.701	557.75
2604.325	550.75
2607.946	530.75
2611.564	528.75
2615.178	521.75
2618.79	518.75
2622.398	502.75
2626.004	507.75
2629.606	496.75
2633.205	485.75
2636.801	483.75
2640.394	467.75
2643.983	454.75
2647.57	453.75
2651.153	438.75
2654.734	435.75
2658.311	443.75
2661.885	418.75
2665.456	422.75
2669.025	402.75
2672.589	400.75
2676.151	399.75
2679.71	380.75
2683.266	378.75
2686.819	354.75
2690.368	377.75
2693.915	351.75
2697.458	336.75
2700.999	334.75
2704.536	323.75
2708.071	312.75
2711.602	310.75
2715.13	304.75
2718.656	289.75
2722.178	280.75
2725.697	270.75
2729.214	277.75
2732.727	275.75
2736.237	277.75
2739.744	268.75
2743.249	267.75
2746.75	266.75
2750.248	274.75
2753.743	268.75
2757.236	278.75
2760.725	274.75
2764.211	271.75
2767.695	280.75
2771.175	267.75
2774.652	261.75
2778.127	271.75
2781.598	251.75
2785.067	250.75
2788.532	256.75
2791.995	241.75
2795.455	260.75
2798.911	244.75
2802.365	240.75
2805.816	251.75
2809.264	233.75
2812.709	239.75
2816.151	237.75
2819.59	241.75
2823.026	231.75
2826.46	222.75
2829.89	227.75
2833.318	227.75
2836.742	227.75
2840.164	219.75
2843.583	219.75
2846.999	218.75
2850.412	203.75
2853.822	219.75
2857.229	218.75
2860.634	211.75
2864.035	206.75
2867.434	205.75
2870.83	213.75
2874.223	206.75
2877.613	191.75
2881	197.75
2884.385	182.75
2887.766	173.75
2891.145	167.75
2894.521	166.75
2897.894	151.75
2901.264	156.75
2904.631	154.75
2907.996	135.75
2911.358	146.75
2914.717	137.75
2918.073	133.75
2921.426	121.75
2924.777	120.75
2928.124	120.75
2931.469	108.75
2934.811	112.75
2938.15	102.75
2941.487	109.75
2944.821	93.75
2948.152	85.75
2951.48	83.75
2954.805	90.75
2958.128	72.75
2961.447	80.75
2964.765	76.75
2968.079	72.75
2971.39	65.75
2974.699	66.75
2978.005	65.75
2981.308	67.75
2984.609	55.75
2987.907	62.75
2991.202	59.75
2994.494	60.75
2997.784	59.75
3001.07	53.75
3004.355	49.75
3007.636	56.75
3010.915	47.75
3014.191	40.75
3017.464	33.75
3020.734	43.75
3024.002	33.75
3027.267	20.75
3030.53	16.75
3033.789	26.75
3037.046	14.75
3040.301	1.75
3043.552	5.75
3046.801	-1.25
3050.048	1.75
3053.291	4.75
3056.532	1.75
3059.771	9.75
3063.006	-7.25
3066.239	0.75
3069.469	4.75
3072.697	-13.25
3075.922	-7.25
3079.144	-3.25
3082.364	-12.25
3085.581	-17.25
3088.795	-13.25
3092.007	-23.25
3095.216	-25.25
3098.423	-26.25
3101.627	-15.25
3104.828	-24.25
3108.026	-29.25
3111.222	-33.25
3114.416	-20.25
3117.607	-31.25
3120.795	-31.25
3123.98	-29.25
3127.163	-27.25
3130.344	-33.25
3133.521	-33.25
3136.696	-38.25
3139.869	-32.25
3143.039	-35.25
3146.206	-49.25
3149.371	-51.25
3152.533	-42.25
3155.693	-47.25
3158.85	-51.25
3162.005	-54.25
3165.157	-58.25
3168.306	-52.25
3171.453	-58.25
3174.597	-66.25
3177.739	-63.25
3180.878	-68.25
3184.014	-73.25
3187.149	-73.25
3190.28	-77.25
3193.409	-74.25
3196.536	-82.25
3199.659	-84.25
3202.781	-83.25
3205.9	-78.25
3209.016	-102.25
3212.13	-88.25
3215.241	-93.25
3218.35	-95.25
3221.456	-99.25
3224.56	-98.25
3227.661	-95.25
3230.76	-96.25
3233.856	-107.25
3236.95	-104.25
3240.041	-97.25
3243.13	-105.25
3246.216	-111.25
3249.3	-103.25
3252.382	-109.25
3255.46	-105.25
3258.537	-78.25
3261.611	-103.25
3264.682	-106.25
3267.751	-100.25
3270.818	-109.25
3273.882	-109.25
3276.943	-111.25
3280.002	-112.25
3283.059	-111.25
3286.113	-111.25
3289.165	-116.25
3292.214	-111.25
3295.261	-115.25
3298.306	-115.25
3301.348	-121.25
3304.387	-120.25
3307.425	-116.25
3310.459	-129.25
3313.492	-126.25
3316.521	-131.25
3319.549	-130.25
3322.574	-134.25
3325.597	-133.25
3328.617	-129.25
3331.635	-129.25
3334.65	-136.25
3337.663	-140.25
3340.674	-126.25
3343.682	-134.25
3346.688	-134.25
3349.691	-137.25
3352.692	-138.25
3355.691	-135.25
3358.687	-137.25
3361.681	-137.25
3364.673	-137.25
3367.662	-137.25
3370.649	-140.25
3373.633	-135.25
3376.615	-135.25
3379.595	-144.25
3382.572	-145.25
3385.547	-142.25
3388.52	-136.25
3391.49	-141.25
3394.458	-148.25
3397.424	-142.25
3400.387	-147.25
3403.348	-142.25
3406.307	-139.25
3409.263	-148.25
3412.217	-147.25
3415.168	-147.25
3418.118	-147.25
3421.065	-150.25
3424.009	-148.25
3426.951	-156.25
3429.891	-151.25
3432.829	-152.25
3435.764	-151.25
3438.697	-156.25
3441.628	-152.25
3444.557	-152.25
3447.483	-154.25
3450.407	-164.25
3453.328	-157.25
3456.247	-160.25
3459.164	-151.25
3462.079	-160.25
3464.991	-163.25
3467.902	-164.25
3470.809	-165.25
3473.715	-161.25
3476.618	-165.25
3479.519	-161.25
3482.418	-162.25
3485.315	-170.25
3488.209	-166.25
3491.101	-162.25
3493.99	-162.25
3496.878	-159.25
3499.763	-164.25
3502.646	-165.25
3505.527	-174.25
3508.405	-169.25
3511.281	-170.25
3514.155	-165.25
3517.027	-169.25
3519.897	-163.25
3522.764	-164.25
3525.629	-176.25
3528.492	-164.25
3531.352	-171.25
3534.211	-168.25
3537.067	-173.25
3539.921	-168.25
3542.773	-170.25
3545.622	-169.25
3548.469	-169.25
3551.315	-172.25
3554.157	-164.25
3556.998	-173.25
3559.837	-167.25
3562.673	-167.25
3565.507	-175.25
3568.339	-174.25
3571.169	-176.25
3573.996	-172.25
3576.822	-170.25
3579.645	-179.25
3582.466	-175.25
3585.285	-176.25
3588.101	-179.25
3590.916	-177.25
3593.728	-174.25
3596.538	-186.25
3599.346	-181.25
3602.152	-177.25
3604.956	-179.25
3607.757	-179.25
3610.556	-181.25
3613.354	-182.25
3616.149	-187.25
3618.942	-181.25
3621.732	-183.25
3624.521	-175.25
3627.307	-185.25
3630.092	-183.25
3632.874	-186.25
3635.654	-178.25
3638.432	-181.25
3641.208	-182.25
3643.982	-179.25
3646.753	-186.25
3649.523	-185.25
3652.29	-189.25
3655.055	-187.25
3657.818	-183.25
3660.579	-185.25
3663.338	-185.25
3666.095	-183.25
3668.849	-185.25
3671.602	-182.25
3674.352	-183.25
3677.101	-183.25
3679.847	-190.25
3682.591	-184.25
3685.333	-180.25
3688.073	-188.25
3690.811	-185.25
3693.547	-180.25
3696.281	-184.25
3699.013	-182.25
3701.742	-180.25
3704.47	-187.25
3707.195	-181.25
3709.919	-178.25
3712.64	-186.25
3715.359	-181.25
3718.076	-180.25
3720.792	-190.25
3723.505	-184.25
3726.216	-186.25
3728.925	-185.25
3731.632	-187.25
3734.336	-186.25
3737.039	-184.25
3739.74	-185.25
3742.439	-182.25
3745.136	-187.25
3747.83	-190.25
3750.523	-183.25
3753.213	-201.25
3755.902	-187.25
3758.589	-188.25
3761.273	-191.25
3763.956	-186.25
3766.636	-183.25
3769.315	-182.25
3771.991	-187.25
3774.665	-180.25
3777.338	-183.25
3780.008	-191.25
3782.677	-188.25
3785.343	-184.25
3788.007	-196.25
3790.67	-188.25
3793.33	-190.25
3795.989	-181.25
3798.645	-193.25
3801.299	-187.25
3803.952	-186.25
3806.602	-190.25
3809.251	-188.25
3811.897	-189.25
3814.542	-188.25
3817.184	-189.25
3819.825	-187.25
3822.463	-191.25
3825.1	-191.25
3827.735	-188.25
3830.367	-187.25
3832.998	-190.25
3835.627	-187.25
3838.253	-187.25
3840.878	-182.25
3843.501	-189.25
3846.122	-189.25
3848.741	-191.25
3851.358	-187.25
3853.973	-183.25
3856.586	-191.25
3859.197	-186.25
3861.806	-186.25
3864.414	-191.25
3867.019	-182.25
3869.622	-181.25
3872.224	-174.25
3874.823	-158.25
3877.421	-145.25
3880.016	-114.25
3882.61	-87.25
3885.202	-74.25
3887.792	-92.25
3890.38	-132.25
3892.966	-166.25
3895.55	-174.25
3898.132	-186.25
3900.713	-188.25
3903.291	-194.25
3905.868	-194.25
3908.442	-190.25
3911.015	-192.25
3913.586	-191.25
3916.155	-189.25
3918.722	-193.25
3921.287	-192.25
3923.85	-196.25
3926.411	-193.25
3928.971	-192.25
3931.528	-190.25
3934.084	-197.25
3936.638	-192.25
3939.19	-199.25
3941.74	-192.25
3944.288	-193.25
3946.834	-190.25
3949.378	-196.25
3951.921	-185.25
3954.462	-188.25
3957	-191.25
3959.537	-185.25
3962.072	-186.25
3964.606	-183.25
3967.137	-186.25
3969.667	-188.25
3972.194	-190.25
3974.72	-189.25
3977.244	-182.25
3979.766	-190.25
3982.286	-183.25
3984.805	-188.25
3987.321	-184.25
3989.836	-184.25
3992.349	-186.25
3994.86	-189.25
3997.369	-188.25
3999.877	-180.25
4002.382	-180.25
4004.886	-183.25
4007.388	-184.25
4009.888	-181.25
4012.386	-183.25
4014.883	-183.25
4017.377	-184.25
4019.87	-181.25
4022.361	-184.25
4024.85	-186.25
4027.338	-183.25
4029.823	-185.25
4032.307	-184.25
4034.789	-187.25
4037.269	-183.25
4039.747	-184.25
4042.224	-183.25
4044.699	-186.25
4047.172	-184.25
4049.643	-183.25
4052.112	-182.25
4054.58	-189.25
4057.046	-188.25
4059.51	-190.25
4061.972	-187.25
4064.432	-186.25
4066.891	-191.25
4069.348	-184.25
4071.803	-186.25
4074.256	-180.25
4076.708	-189.25
4079.158	-189.25
4081.606	-187.25
4084.052	-192.25
4086.497	-188.25
4088.939	-190.25
4091.38	-184.25
4093.819	-189.25
4096.257	-197.25
4098.693	-199.25
4101.127	-201.25
4103.559	-200.25
4105.989	-38.25
4108.418	-35.25
4110.845	-32.25
4113.27	-42.25
4115.694	-23.25
4118.115	-15.25
4120.535	-184.25
4122.954	-187.25
4125.37	-188.25
4127.785	-187.25
4130.198	-187.25
4132.609	-186.25
4135.019	-194.25
4137.427	-198.25
4139.833	-196.25
4142.237	-200.25