File: Data/Raman/2017-08-29 - Alluminum 2/Aug 29 2017 - Aluminum 2/EC 12 5_RamanShift_1.txt
Data from EC 12 5_RamanShift_1.txt Node

Date: Tue Aug 29 12:53:37 IDT 2017
User: aro
Spectrometer: QEPB0276
Trigger mode: 0
Integration Time (sec): 3.000000E1
Scans to average: 1
Electric dark correction enabled: true
Nonlinearity correction enabled: false
Boxcar width: 0
XAxis mode: Raman Shifts
Number of Pixels in Spectrum: 1044
>>>>>Begin Spectral Data<<<<<
160.701	20.88
166.742	30.88
172.777	81.88
178.805	232.88
184.826	554.88
190.841	1131.88
196.849	1809.88
202.85	2341.88
208.845	2557.88
214.833	2625.88
220.815	2660.88
226.789	2733.88
232.758	2826.88
238.719	2898.88
244.674	2966.88
250.623	3015.88
256.565	3037.88
262.5	3068.88
268.429	3136.88
274.351	3181.88
280.267	3209.88
286.176	3274.88
292.079	3310.88
297.975	3350.88
303.865	3403.88
309.748	3411.88
315.625	3441.88
321.495	3477.88
327.359	3492.88
333.217	3486.88
339.068	3488.88
344.912	3529.88
350.751	3541.88
356.583	3569.88
362.408	3589.88
368.227	3615.88
374.04	3721.88
379.847	3850.88
385.647	3891.88
391.44	3859.88
397.228	3730.88
403.009	3783.88
408.784	3998.88
414.553	4371.88
420.315	4844.88
426.071	4846.88
431.821	4385.88
437.565	3963.88
443.302	3836.88
449.033	3768.88
454.758	3748.88
460.477	3672.88
466.189	3656.88
471.896	3602.88
477.596	3583.88
483.29	3543.88
488.978	3569.88
494.66	3517.88
500.335	3434.88
506.005	3287.88
511.668	3116.88
517.325	2928.88
522.977	2824.88
528.622	2753.88
534.261	2689.88
539.894	2635.88
545.521	2595.88
551.141	2611.88
556.756	2564.88
562.365	2556.88
567.968	2524.88
573.565	2538.88
579.155	2537.88
584.74	2549.88
590.319	2503.88
595.892	2506.88
601.459	2481.88
607.02	2491.88
612.575	2455.88
618.124	2463.88
623.667	2437.88
629.204	2432.88
634.735	2434.88
640.261	2536.88
645.781	2663.88
651.294	2757.88
656.802	2635.88
662.304	2436.88
667.8	2380.88
673.29	2330.88
678.775	2303.88
684.254	2309.88
689.726	2270.88
695.193	2255.88
700.655	2276.88
706.11	2261.88
711.56	2230.88
717.004	2254.88
722.442	2250.88
727.874	2230.88
733.301	2267.88
738.722	2267.88
744.137	2291.88
749.547	2318.88
754.951	2378.88
760.349	2353.88
765.741	2326.88
771.128	2294.88
776.509	2325.88
781.885	2362.88
787.254	2391.88
792.618	2381.88
797.977	2375.88
803.33	2361.88
808.677	2384.88
814.019	2325.88
819.355	2302.88
824.686	2311.88
830.011	2285.88
835.33	2299.88
840.644	2285.88
845.952	2279.88
851.255	2261.88
856.552	2230.88
861.844	2208.88
867.13	2210.88
872.41	2190.88
877.686	2162.88
882.955	2143.88
888.219	2131.88
893.478	2128.88
898.731	2080.88
903.979	2079.88
909.221	2087.88
914.458	2062.88
919.69	2076.88
924.916	2077.88
930.136	2107.88
935.351	2103.88
940.561	2110.88
945.766	2099.88
950.965	2094.88
956.158	2092.88
961.347	2067.88
966.529	2038.88
971.707	2020.88
976.879	1995.88
982.046	1994.88
987.208	1968.88
992.364	1976.88
997.515	2012.88
1002.66	2005.88
1007.801	2024.88
1012.936	2052.88
1018.066	2070.88
1023.19	2063.88
1028.309	2063.88
1033.423	2068.88
1038.532	2059.88
1043.636	2064.88
1048.734	2034.88
1053.827	2016.88
1058.915	2002.88
1063.998	2004.88
1069.075	2005.88
1074.147	2006.88
1079.214	2022.88
1084.276	2004.88
1089.333	2006.88
1094.385	2036.88
1099.431	2015.88
1104.472	1994.88
1109.509	1991.88
1114.54	1958.88
1119.565	1932.88
1124.586	1905.88
1129.602	1886.88
1134.613	1891.88
1139.618	1862.88
1144.619	1866.88
1149.614	1883.88
1154.604	1867.88
1159.589	1896.88
1164.57	1895.88
1169.545	1922.88
1174.515	1897.88
1179.48	1867.88
1184.44	1880.88
1189.395	1848.88
1194.345	1849.88
1199.29	1845.88
1204.23	1833.88
1209.165	1843.88
1214.095	1850.88
1219.021	1860.88
1223.941	1890.88
1228.856	1893.88
1233.766	1900.88
1238.672	1890.88
1243.572	1883.88
1248.467	1866.88
1253.358	1839.88
1258.244	1809.88
1263.124	1776.88
1268	1745.88
1272.871	1730.88
1277.737	1695.88
1282.599	1709.88
1287.455	1702.88
1292.306	1698.88
1297.153	1715.88
1301.995	1735.88
1306.832	1739.88
1311.664	1711.88
1316.491	1716.88
1321.314	1689.88
1326.132	1680.88
1330.945	1640.88
1335.753	1608.88
1340.556	1574.88
1345.354	1570.88
1350.148	1541.88
1354.937	1511.88
1359.722	1516.88
1364.501	1533.88
1369.276	1540.88
1374.046	1564.88
1378.811	1575.88
1383.572	1610.88
1388.327	1612.88
1393.079	1587.88
1397.825	1568.88
1402.567	1524.88
1407.304	1503.88
1412.036	1481.88
1416.764	1484.88
1421.487	1458.88
1426.205	1438.88
1430.919	1453.88
1435.628	1472.88
1440.333	1475.88
1445.032	1479.88
1449.727	1482.88
1454.418	1490.88
1459.104	1465.88
1463.785	1426.88
1468.462	1423.88
1473.134	1411.88
1477.802	1379.88
1482.465	1368.88
1487.123	1372.88
1491.777	1358.88
1496.426	1362.88
1501.071	1369.88
1505.711	1401.88
1510.347	1416.88
1514.978	1445.88
1519.604	1445.88
1524.226	1460.88
1528.844	1458.88
1533.457	1440.88
1538.065	1443.88
1542.669	1426.88
1547.269	1395.88
1551.864	1399.88
1556.454	1394.88
1561.041	1381.88
1565.622	1366.88
1570.199	1333.88
1574.772	1331.88
1579.34	1326.88
1583.904	1338.88
1588.464	1314.88
1593.019	1308.88
1597.569	1302.88
1602.115	1267.88
1606.657	1239.88
1611.195	1230.88
1615.728	1221.88
1620.256	1209.88
1624.78	1193.88
1629.3	1169.88
1633.816	1182.88
1638.327	1190.88
1642.834	1192.88
1647.336	1193.88
1651.834	1214.88
1656.328	1210.88
1660.817	1218.88
1665.302	1214.88
1669.783	1205.88
1674.259	1181.88
1678.732	1167.88
1683.199	1131.88
1687.663	1118.88
1692.122	1118.88
1696.577	1105.88
1701.028	1109.88
1705.474	1132.88
1709.917	1168.88
1714.355	1173.88
1718.788	1178.88
1723.218	1157.88
1727.643	1134.88
1732.064	1127.88
1736.481	1122.88
1740.893	1101.88
1745.301	1057.88
1749.705	1039.88
1754.105	1010.88
1758.501	989.88
1762.893	962.88
1767.28	947.88
1771.663	932.88
1776.042	916.88
1780.417	916.88
1784.787	905.88
1789.154	922.88
1793.516	934.88
1797.874	972.88
1802.228	986.88
1806.578	983.88
1810.924	986.88
1815.266	973.88
1819.603	937.88
1823.937	944.88
1828.266	925.88
1832.591	910.88
1836.913	903.88
1841.23	879.88
1845.543	872.88
1849.852	885.88
1854.156	883.88
1858.457	887.88
1862.754	887.88
1867.047	884.88
1871.335	886.88
1875.62	887.88
1879.9	880.88
1884.177	879.88
1888.449	877.88
1892.718	871.88
1896.982	845.88
1901.243	843.88
1905.499	843.88
1909.752	847.88
1914	857.88
1918.245	852.88
1922.485	864.88
1926.722	889.88
1930.954	861.88
1935.183	881.88
1939.408	896.88
1943.628	900.88
1947.845	900.88
1952.058	889.88
1956.267	874.88
1960.472	868.88
1964.673	852.88
1968.87	815.88
1973.063	814.88
1977.252	803.88
1981.438	781.88
1985.619	760.88
1989.797	752.88
1993.971	760.88
1998.14	748.88
2002.306	746.88
2006.469	734.88
2010.627	731.88
2014.781	731.88
2018.932	722.88
2023.078	720.88
2027.221	698.88
2031.36	699.88
2035.495	680.88
2039.627	681.88
2043.754	665.88
2047.878	671.88
2051.998	654.88
2056.114	655.88
2060.226	669.88
2064.334	655.88
2068.439	651.88
2072.54	667.88
2076.637	677.88
2080.73	686.88
2084.82	672.88
2088.906	695.88
2092.988	698.88
2097.066	700.88
2101.14	688.88
2105.211	680.88
2109.278	674.88
2113.342	668.88
2117.401	672.88
2121.457	652.88
2125.509	653.88
2129.558	650.88
2133.602	648.88
2137.643	633.88
2141.681	642.88
2145.714	628.88
2149.744	613.88
2153.77	619.88
2157.793	614.88
2161.812	609.88
2165.827	612.88
2169.838	592.88
2173.846	577.88
2177.851	573.88
2181.851	557.88
2185.848	565.88
2189.841	545.88
2193.831	559.88
2197.817	547.88
2201.799	538.88
2205.778	539.88
2209.753	530.88
2213.725	547.88
2217.693	536.88
2221.657	550.88
2225.618	549.88
2229.575	534.88
2233.529	537.88
2237.479	524.88
2241.425	533.88
2245.368	520.88
2249.307	516.88
2253.243	508.88
2257.175	510.88
2261.104	503.88
2265.029	506.88
2268.95	490.88
2272.868	495.88
2276.783	479.88
2280.694	477.88
2284.601	478.88
2288.505	481.88
2292.405	471.88
2296.302	459.88
2300.195	453.88
2304.085	454.88
2307.971	453.88
2311.854	444.88
2315.734	449.88
2319.609	433.88
2323.482	432.88
2327.351	444.88
2331.216	467.88
2335.078	473.88
2338.937	456.88
2342.792	419.88
2346.643	415.88
2350.492	420.88
2354.336	423.88
2358.178	427.88
2362.015	416.88
2365.85	419.88
2369.681	424.88
2373.508	417.88
2377.333	417.88
2381.153	424.88
2384.971	421.88
2388.785	416.88
2392.595	420.88
2396.402	412.88
2400.206	419.88
2404.007	409.88
2407.804	409.88
2411.597	405.88
2415.388	408.88
2419.174	399.88
2422.958	397.88
2426.738	395.88
2430.515	394.88
2434.289	397.88
2438.059	392.88
2441.825	383.88
2445.589	385.88
2449.349	377.88
2453.106	376.88
2456.859	375.88
2460.61	357.88
2464.356	353.88
2468.1	357.88
2471.84	359.88
2475.577	363.88
2479.311	341.88
2483.041	349.88
2486.768	346.88
2490.492	349.88
2494.213	350.88
2497.93	344.88
2501.644	339.88
2505.355	335.88
2509.062	346.88
2512.766	341.88
2516.467	337.88
2520.165	340.88
2523.859	338.88
2527.551	334.88
2531.239	332.88
2534.923	322.88
2538.605	329.88
2542.283	327.88
2545.958	335.88
2549.63	345.88
2553.299	332.88
2556.964	342.88
2560.626	327.88
2564.285	326.88
2567.941	327.88
2571.594	325.88
2575.243	311.88
2578.89	318.88
2582.533	327.88
2586.173	319.88
2589.809	312.88
2593.443	305.88
2597.073	310.88
2600.701	304.88
2604.325	307.88
2607.946	296.88
2611.564	300.88
2615.178	294.88
2618.79	288.88
2622.398	285.88
2626.004	284.88
2629.606	280.88
2633.205	278.88
2636.801	270.88
2640.394	272.88
2643.983	260.88
2647.57	258.88
2651.153	243.88
2654.734	255.88
2658.311	250.88
2661.885	238.88
2665.456	240.88
2669.025	235.88
2672.589	240.88
2676.151	230.88
2679.71	217.88
2683.266	223.88
2686.819	218.88
2690.368	224.88
2693.915	206.88
2697.458	206.88
2700.999	201.88
2704.536	211.88
2708.071	192.88
2711.602	181.88
2715.13	177.88
2718.656	173.88
2722.178	170.88
2725.697	165.88
2729.214	167.88
2732.727	175.88
2736.237	175.88
2739.744	167.88
2743.249	172.88
2746.75	172.88
2750.248	172.88
2753.743	173.88
2757.236	190.88
2760.725	177.88
2764.211	172.88
2767.695	189.88
2771.175	182.88
2774.652	175.88
2778.127	175.88
2781.598	172.88
2785.067	167.88
2788.532	164.88
2791.995	152.88
2795.455	167.88
2798.911	162.88
2802.365	148.88
2805.816	159.88
2809.264	153.88
2812.709	157.88
2816.151	158.88
2819.59	161.88
2823.026	155.88
2826.46	154.88
2829.89	152.88
2833.318	150.88
2836.742	153.88
2840.164	147.88
2843.583	144.88
2846.999	152.88
2850.412	140.88
2853.822	152.88
2857.229	156.88
2860.634	153.88
2864.035	144.88
2867.434	145.88
2870.83	144.88
2874.223	144.88
2877.613	140.88
2881	134.88
2884.385	127.88
2887.766	131.88
2891.145	126.88
2894.521	126.88
2897.894	118.88
2901.264	112.88
2904.631	120.88
2907.996	103.88
2911.358	112.88
2914.717	104.88
2918.073	113.88
2921.426	104.88
2924.777	99.88
2928.124	102.88
2931.469	101.88
2934.811	95.88
2938.15	91.88
2941.487	96.88
2944.821	90.88
2948.152	76.88
2951.48	71.88
2954.805	76.88
2958.128	80.88
2961.447	65.88
2964.765	63.88
2968.079	69.88
2971.39	64.88
2974.699	62.88
2978.005	63.88
2981.308	68.88
2984.609	57.88
2987.907	67.88
2991.202	64.88
2994.494	67.88
2997.784	66.88
3001.07	61.88
3004.355	58.88
3007.636	54.88
3010.915	57.88
3014.191	53.88
3017.464	46.88
3020.734	48.88
3024.002	43.88
3027.267	42.88
3030.53	37.88
3033.789	50.88
3037.046	32.88
3040.301	29.88
3043.552	24.88
3046.801	35.88
3050.048	29.88
3053.291	31.88
3056.532	29.88
3059.771	31.88
3063.006	27.88
3066.239	28.88
3069.469	27.88
3072.697	20.88
3075.922	20.88
3079.144	22.88
3082.364	18.88
3085.581	20.88
3088.795	15.88
3092.007	18.88
3095.216	18.88
3098.423	15.88
3101.627	17.88
3104.828	18.88
3108.026	17.88
3111.222	17.88
3114.416	14.88
3117.607	16.88
3120.795	15.88
3123.98	15.88
3127.163	13.88
3130.344	11.88
3133.521	6.88
3136.696	14.88
3139.869	6.88
3143.039	10.88
3146.206	11.88
3149.371	3.88
3152.533	0.88
3155.693	4.88
3158.85	-2.12
3162.005	3.88
3165.157	-4.12
3168.306	3.88
3171.453	-7.12
3174.597	-6.12
3177.739	0.88
3180.878	-13.12
3184.014	-13.12
3187.149	-9.12
3190.28	-14.12
3193.409	-15.12
3196.536	-22.12
3199.659	-12.12
3202.781	-18.12
3205.9	-17.12
3209.016	-30.12
3212.13	-20.12
3215.241	-20.12
3218.35	-16.12
3221.456	-22.12
3224.56	-25.12
3227.661	-30.12
3230.76	-30.12
3233.856	-28.12
3236.95	-29.12
3240.041	-30.12
3243.13	-33.12
3246.216	-27.12
3249.3	-31.12
3252.382	-28.12
3255.46	-28.12
3258.537	-0.12
3261.611	-29.12
3264.682	-30.12
3267.751	-28.12
3270.818	-36.12
3273.882	-38.12
3276.943	-40.12
3280.002	-32.12
3283.059	-34.12
3286.113	-35.12
3289.165	-41.12
3292.214	-38.12
3295.261	-35.12
3298.306	-38.12
3301.348	-41.12
3304.387	-38.12
3307.425	-43.12
3310.459	-47.12
3313.492	-43.12
3316.521	-49.12
3319.549	-40.12
3322.574	-48.12
3325.597	-45.12
3328.617	-48.12
3331.635	-49.12
3334.65	-50.12
3337.663	-55.12
3340.674	-47.12
3343.682	-50.12
3346.688	-59.12
3349.691	-52.12
3352.692	-46.12
3355.691	-54.12
3358.687	-50.12
3361.681	-52.12
3364.673	-55.12
3367.662	-47.12
3370.649	-56.12
3373.633	-52.12
3376.615	-54.12
3379.595	-60.12
3382.572	-58.12
3385.547	-58.12
3388.52	-49.12
3391.49	-55.12
3394.458	-60.12
3397.424	-54.12
3400.387	-56.12
3403.348	-56.12
3406.307	-54.12
3409.263	-56.12
3412.217	-62.12
3415.168	-60.12
3418.118	-62.12
3421.065	-59.12
3424.009	-59.12
3426.951	-57.12
3429.891	-59.12
3432.829	-62.12
3435.764	-66.12
3438.697	-59.12
3441.628	-66.12
3444.557	-59.12
3447.483	-66.12
3450.407	-71.12
3453.328	-66.12
3456.247	-67.12
3459.164	-66.12
3462.079	-64.12
3464.991	-73.12
3467.902	-69.12
3470.809	-70.12
3473.715	-69.12
3476.618	-75.12
3479.519	-65.12
3482.418	-71.12
3485.315	-73.12
3488.209	-73.12
3491.101	-69.12
3493.99	-70.12
3496.878	-73.12
3499.763	-74.12
3502.646	-68.12
3505.527	-80.12
3508.405	-74.12
3511.281	-73.12
3514.155	-68.12
3517.027	-74.12
3519.897	-73.12
3522.764	-72.12
3525.629	-76.12
3528.492	-74.12
3531.352	-74.12
3534.211	-76.12
3537.067	-70.12
3539.921	-75.12
3542.773	-76.12
3545.622	-79.12
3548.469	-74.12
3551.315	-71.12
3554.157	-72.12
3556.998	-76.12
3559.837	-68.12
3562.673	-70.12
3565.507	-76.12
3568.339	-69.12
3571.169	-75.12
3573.996	-80.12
3576.822	-74.12
3579.645	-73.12
3582.466	-75.12
3585.285	-82.12
3588.101	-82.12
3590.916	-84.12
3593.728	-70.12
3596.538	-83.12
3599.346	-78.12
3602.152	-84.12
3604.956	-77.12
3607.757	-83.12
3610.556	-79.12
3613.354	-77.12
3616.149	-82.12
3618.942	-76.12
3621.732	-76.12
3624.521	-76.12
3627.307	-82.12
3630.092	-82.12
3632.874	-78.12
3635.654	-78.12
3638.432	-77.12
3641.208	-82.12
3643.982	-83.12
3646.753	-81.12
3649.523	-86.12
3652.29	-83.12
3655.055	-84.12
3657.818	-83.12
3660.579	-81.12
3663.338	-80.12
3666.095	-81.12
3668.849	-82.12
3671.602	-82.12
3674.352	-88.12
3677.101	-81.12
3679.847	-89.12
3682.591	-82.12
3685.333	-80.12
3688.073	-88.12
3690.811	-81.12
3693.547	-78.12
3696.281	-81.12
3699.013	-85.12
3701.742	-80.12
3704.47	-89.12
3707.195	-81.12
3709.919	-83.12
3712.64	-87.12
3715.359	-78.12
3718.076	-79.12
3720.792	-86.12
3723.505	-81.12
3726.216	-86.12
3728.925	-77.12
3731.632	-84.12
3734.336	-81.12
3737.039	-86.12
3739.74	-83.12
3742.439	-82.12
3745.136	-86.12
3747.83	-83.12
3750.523	-83.12
3753.213	-105.12
3755.902	-83.12
3758.589	-84.12
3761.273	-91.12
3763.956	-79.12
3766.636	-82.12
3769.315	-88.12
3771.991	-84.12
3774.665	-76.12
3777.338	-82.12
3780.008	-92.12
3782.677	-82.12
3785.343	-86.12
3788.007	-89.12
3790.67	-85.12
3793.33	-82.12
3795.989	-81.12
3798.645	-88.12
3801.299	-83.12
3803.952	-86.12
3806.602	-83.12
3809.251	-88.12
3811.897	-84.12
3814.542	-86.12
3817.184	-83.12
3819.825	-85.12
3822.463	-82.12
3825.1	-92.12
3827.735	-87.12
3830.367	-86.12
3832.998	-80.12
3835.627	-85.12
3838.253	-85.12
3840.878	-85.12
3843.501	-83.12
3846.122	-93.12
3848.741	-82.12
3851.358	-84.12
3853.973	-82.12
3856.586	-90.12
3859.197	-79.12
3861.806	-89.12
3864.414	-77.12
3867.019	-83.12
3869.622	-80.12
3872.224	-71.12
3874.823	-59.12
3877.421	-44.12
3880.016	-25.12
3882.61	-5.12
3885.202	9.88
3887.792	-17.12
3890.38	-45.12
3892.966	-66.12
3895.55	-79.12
3898.132	-90.12
3900.713	-89.12
3903.291	-90.12
3905.868	-90.12
3908.442	-89.12
3911.015	-88.12
3913.586	-95.12
3916.155	-90.12
3918.722	-89.12
3921.287	-87.12
3923.85	-95.12
3926.411	-89.12
3928.971	-88.12
3931.528	-89.12
3934.084	-92.12
3936.638	-90.12
3939.19	-88.12
3941.74	-89.12
3944.288	-95.12
3946.834	-86.12
3949.378	-91.12
3951.921	-85.12
3954.462	-91.12
3957	-87.12
3959.537	-89.12
3962.072	-80.12
3964.606	-86.12
3967.137	-82.12
3969.667	-85.12
3972.194	-87.12
3974.72	-88.12
3977.244	-87.12
3979.766	-98.12
3982.286	-87.12
3984.805	-87.12
3987.321	-84.12
3989.836	-84.12
3992.349	-82.12
3994.86	-94.12
3997.369	-83.12
3999.877	-83.12
4002.382	-86.12
4004.886	-85.12
4007.388	-80.12
4009.888	-88.12
4012.386	-86.12
4014.883	-85.12
4017.377	-81.12
4019.87	-81.12
4022.361	-85.12
4024.85	-86.12
4027.338	-81.12
4029.823	-86.12
4032.307	-86.12
4034.789	-82.12
4037.269	-82.12
4039.747	-82.12
4042.224	-84.12
4044.699	-81.12
4047.172	-86.12
4049.643	-83.12
4052.112	-82.12
4054.58	-90.12
4057.046	-83.12
4059.51	-88.12
4061.972	-87.12
4064.432	-83.12
4066.891	-87.12
4069.348	-82.12
4071.803	-87.12
4074.256	-83.12
4076.708	-89.12
4079.158	-86.12
4081.606	-85.12
4084.052	-89.12
4086.497	-88.12
4088.939	-86.12
4091.38	-88.12
4093.819	-87.12
4096.257	-89.12
4098.693	-88.12
4101.127	-89.12
4103.559	-90.12
4105.989	24.88
4108.418	26.88
4110.845	22.88
4113.27	7.88
4115.694	10.88
4118.115	20.88
4120.535	-86.12
4122.954	-82.12
4125.37	-92.12
4127.785	-87.12
4130.198	-86.12
4132.609	-88.12
4135.019	-92.12
4137.427	-88.12
4139.833	-89.12
4142.237	-97.12