File: Data/Raman/2017-08-29 - Alluminum 2/Aug 29 2017 - Aluminum 2/EC 11 2_RamanShift_1.txt
Data from EC 11 2_RamanShift_1.txt Node

Date: Tue Aug 29 12:18:07 IDT 2017
User: aro
Spectrometer: QEPB0276
Trigger mode: 0
Integration Time (sec): 3.000000E1
Scans to average: 1
Electric dark correction enabled: true
Nonlinearity correction enabled: false
Boxcar width: 0
XAxis mode: Raman Shifts
Number of Pixels in Spectrum: 1044
>>>>>Begin Spectral Data<<<<<
160.701	14.38
166.742	56.38
172.777	174.38
178.805	547.38
184.826	1404.38
190.841	2938.38
196.849	4737.38
202.85	6122.38
208.845	6753.38
214.833	6870.38
220.815	7049.38
226.789	7222.38
232.758	7484.38
238.719	7659.38
244.674	7845.38
250.623	7970.38
256.565	8045.38
262.5	8146.38
268.429	8202.38
274.351	8323.38
280.267	8474.38
286.176	8565.38
292.079	8661.38
297.975	8755.38
303.865	8781.38
309.748	8875.38
315.625	8946.38
321.495	8921.38
327.359	9019.38
333.217	9024.38
339.068	9093.38
344.912	9110.38
350.751	9133.38
356.583	9121.38
362.408	9138.38
368.227	9202.38
374.04	9345.38
379.847	9517.38
385.647	9603.38
391.44	9515.38
397.228	9357.38
403.009	9436.38
408.784	9675.38
414.553	10250.38
420.315	10951.38
426.071	10964.38
431.821	10240.38
437.565	9616.38
443.302	9451.38
449.033	9313.38
454.758	9291.38
460.477	9201.38
466.189	9143.38
471.896	9080.38
477.596	9024.38
483.29	9002.38
488.978	8997.38
494.66	8939.38
500.335	8803.38
506.005	8574.38
511.668	8277.38
517.325	8066.38
522.977	7914.38
528.622	7718.38
534.261	7623.38
539.894	7569.38
545.521	7539.38
551.141	7454.38
556.756	7417.38
562.365	7379.38
567.968	7353.38
573.565	7318.38
579.155	7322.38
584.74	7344.38
590.319	7297.38
595.892	7201.38
601.459	7217.38
607.02	7181.38
612.575	7165.38
618.124	7104.38
623.667	7045.38
629.204	7021.38
634.735	7036.38
640.261	7200.38
645.781	7372.38
651.294	7439.38
656.802	7304.38
662.304	6988.38
667.8	6859.38
673.29	6809.38
678.775	6793.38
684.254	6725.38
689.726	6737.38
695.193	6692.38
700.655	6658.38
706.11	6593.38
711.56	6574.38
717.004	6540.38
722.442	6499.38
727.874	6490.38
733.301	6481.38
738.722	6480.38
744.137	6506.38
749.547	6584.38
754.951	6593.38
760.349	6555.38
765.741	6560.38
771.128	6537.38
776.509	6537.38
781.885	6569.38
787.254	6569.38
792.618	6559.38
797.977	6533.38
803.33	6491.38
808.677	6483.38
814.019	6426.38
819.355	6402.38
824.686	6326.38
830.011	6309.38
835.33	6273.38
840.644	6291.38
845.952	6275.38
851.255	6243.38
856.552	6233.38
861.844	6225.38
867.13	6170.38
872.41	6144.38
877.686	6124.38
882.955	6055.38
888.219	5990.38
893.478	5967.38
898.731	5891.38
903.979	5869.38
909.221	5803.38
914.458	5780.38
919.69	5827.38
924.916	5807.38
930.136	5824.38
935.351	5855.38
940.561	5833.38
945.766	5831.38
950.965	5816.38
956.158	5776.38
961.347	5699.38
966.529	5651.38
971.707	5561.38
976.879	5523.38
982.046	5451.38
987.208	5438.38
992.364	5420.38
997.515	5470.38
1002.66	5480.38
1007.801	5536.38
1012.936	5589.38
1018.066	5633.38
1023.19	5640.38
1028.309	5631.38
1033.423	5625.38
1038.532	5562.38
1043.636	5546.38
1048.734	5504.38
1053.827	5419.38
1058.915	5385.38
1063.998	5337.38
1069.075	5330.38
1074.147	5311.38
1079.214	5346.38
1084.276	5363.38
1089.333	5373.38
1094.385	5370.38
1099.431	5389.38
1104.472	5390.38
1109.509	5313.38
1114.54	5247.38
1119.565	5159.38
1124.586	5137.38
1129.602	5078.38
1134.613	5020.38
1139.618	4984.38
1144.619	4956.38
1149.614	4974.38
1154.604	4968.38
1159.589	5021.38
1164.57	5026.38
1169.545	5060.38
1174.515	5027.38
1179.48	5010.38
1184.44	4924.38
1189.395	4906.38
1194.345	4864.38
1199.29	4834.38
1204.23	4852.38
1209.165	4863.38
1214.095	4826.38
1219.021	4903.38
1223.941	4896.38
1228.856	4927.38
1233.766	4960.38
1238.672	4919.38
1243.572	4885.38
1248.467	4831.38
1253.358	4801.38
1258.244	4679.38
1263.124	4621.38
1268	4522.38
1272.871	4487.38
1277.737	4434.38
1282.599	4428.38
1287.455	4418.38
1292.306	4409.38
1297.153	4430.38
1301.995	4441.38
1306.832	4467.38
1311.664	4413.38
1316.491	4390.38
1321.314	4353.38
1326.132	4278.38
1330.945	4208.38
1335.753	4106.38
1340.556	3997.38
1345.354	3918.38
1350.148	3858.38
1354.937	3817.38
1359.722	3822.38
1364.501	3845.38
1369.276	3928.38
1374.046	3950.38
1378.811	4023.38
1383.572	4075.38
1388.327	4041.38
1393.079	4009.38
1397.825	4007.38
1402.567	3893.38
1407.304	3832.38
1412.036	3774.38
1416.764	3738.38
1421.487	3748.38
1426.205	3676.38
1430.919	3692.38
1435.628	3733.38
1440.333	3714.38
1445.032	3699.38
1449.727	3728.38
1454.418	3669.38
1459.104	3637.38
1463.785	3582.38
1468.462	3473.38
1473.134	3444.38
1477.802	3377.38
1482.465	3348.38
1487.123	3336.38
1491.777	3320.38
1496.426	3327.38
1501.071	3373.38
1505.711	3442.38
1510.347	3485.38
1514.978	3566.38
1519.604	3574.38
1524.226	3614.38
1528.844	3596.38
1533.457	3572.38
1538.065	3569.38
1542.669	3507.38
1547.269	3486.38
1551.864	3445.38
1556.454	3451.38
1561.041	3401.38
1565.622	3385.38
1570.199	3327.38
1574.772	3321.38
1579.34	3329.38
1583.904	3280.38
1588.464	3258.38
1593.019	3224.38
1597.569	3201.38
1602.115	3149.38
1606.657	3107.38
1611.195	3034.38
1615.728	2979.38
1620.256	2959.38
1624.78	2926.38
1629.3	2904.38
1633.816	2888.38
1638.327	2880.38
1642.834	2888.38
1647.336	2902.38
1651.834	2913.38
1656.328	2919.38
1660.817	2900.38
1665.302	2896.38
1669.783	2839.38
1674.259	2824.38
1678.732	2767.38
1683.199	2704.38
1687.663	2644.38
1692.122	2612.38
1696.577	2601.38
1701.028	2603.38
1705.474	2695.38
1709.917	2755.38
1714.355	2774.38
1718.788	2797.38
1723.218	2782.38
1727.643	2738.38
1732.064	2714.38
1736.481	2662.38
1740.893	2606.38
1745.301	2537.38
1749.705	2486.38
1754.105	2407.38
1758.501	2355.38
1762.893	2277.38
1767.28	2235.38
1771.663	2199.38
1776.042	2150.38
1780.417	2153.38
1784.787	2140.38
1789.154	2177.38
1793.516	2213.38
1797.874	2258.38
1802.228	2293.38
1806.578	2316.38
1810.924	2350.38
1815.266	2321.38
1819.603	2265.38
1823.937	2257.38
1828.266	2203.38
1832.591	2169.38
1836.913	2144.38
1841.23	2112.38
1845.543	2114.38
1849.852	2086.38
1854.156	2089.38
1858.457	2081.38
1862.754	2095.38
1867.047	2079.38
1871.335	2080.38
1875.62	2067.38
1879.9	2058.38
1884.177	2040.38
1888.449	2007.38
1892.718	1997.38
1896.982	1987.38
1901.243	1946.38
1905.499	1938.38
1909.752	1948.38
1914	1924.38
1918.245	1943.38
1922.485	1966.38
1926.722	1975.38
1930.954	1989.38
1935.183	2030.38
1939.408	2046.38
1943.628	2066.38
1947.845	2041.38
1952.058	2049.38
1956.267	2029.38
1960.472	1997.38
1964.673	1959.38
1968.87	1903.38
1973.063	1901.38
1977.252	1844.38
1981.438	1825.38
1985.619	1788.38
1989.797	1792.38
1993.971	1764.38
1998.14	1748.38
2002.306	1729.38
2006.469	1729.38
2010.627	1710.38
2014.781	1698.38
2018.932	1669.38
2023.078	1657.38
2027.221	1628.38
2031.36	1596.38
2035.495	1575.38
2039.627	1535.38
2043.754	1535.38
2047.878	1507.38
2051.998	1483.38
2056.114	1494.38
2060.226	1491.38
2064.334	1505.38
2068.439	1498.38
2072.54	1510.38
2076.637	1518.38
2080.73	1529.38
2084.82	1535.38
2088.906	1539.38
2092.988	1547.38
2097.066	1534.38
2101.14	1533.38
2105.211	1524.38
2109.278	1504.38
2113.342	1493.38
2117.401	1487.38
2121.457	1463.38
2125.509	1469.38
2129.558	1457.38
2133.602	1435.38
2137.643	1430.38
2141.681	1422.38
2145.714	1418.38
2149.744	1403.38
2153.77	1397.38
2157.793	1373.38
2161.812	1363.38
2165.827	1351.38
2169.838	1308.38
2173.846	1308.38
2177.851	1296.38
2181.851	1264.38
2185.848	1255.38
2189.841	1230.38
2193.831	1228.38
2197.817	1237.38
2201.799	1227.38
2205.778	1218.38
2209.753	1201.38
2213.725	1230.38
2217.693	1217.38
2221.657	1202.38
2225.618	1213.38
2229.575	1212.38
2233.529	1215.38
2237.479	1194.38
2241.425	1180.38
2245.368	1176.38
2249.307	1142.38
2253.243	1137.38
2257.175	1135.38
2261.104	1105.38
2265.029	1106.38
2268.95	1097.38
2272.868	1080.38
2276.783	1066.38
2280.694	1059.38
2284.601	1050.38
2288.505	1057.38
2292.405	1042.38
2296.302	1029.38
2300.195	1021.38
2304.085	1016.38
2307.971	1007.38
2311.854	985.38
2315.734	967.38
2319.609	968.38
2323.482	969.38
2327.351	982.38
2331.216	1018.38
2335.078	1022.38
2338.937	993.38
2342.792	942.38
2346.643	945.38
2350.492	947.38
2354.336	927.38
2358.178	947.38
2362.015	948.38
2365.85	951.38
2369.681	943.38
2373.508	948.38
2377.333	955.38
2381.153	944.38
2384.971	938.38
2388.785	947.38
2392.595	926.38
2396.402	921.38
2400.206	913.38
2404.007	896.38
2407.804	895.38
2411.597	906.38
2415.388	902.38
2419.174	900.38
2422.958	887.38
2426.738	891.38
2430.515	860.38
2434.289	862.38
2438.059	862.38
2441.825	851.38
2445.589	826.38
2449.349	828.38
2453.106	826.38
2456.859	809.38
2460.61	794.38
2464.356	784.38
2468.1	782.38
2471.84	782.38
2475.577	775.38
2479.311	760.38
2483.041	771.38
2486.768	755.38
2490.492	751.38
2494.213	752.38
2497.93	745.38
2501.644	746.38
2505.355	732.38
2509.062	743.38
2512.766	741.38
2516.467	720.38
2520.165	726.38
2523.859	701.38
2527.551	709.38
2531.239	688.38
2534.923	699.38
2538.605	703.38
2542.283	698.38
2545.958	696.38
2549.63	700.38
2553.299	688.38
2556.964	693.38
2560.626	687.38
2564.285	683.38
2567.941	692.38
2571.594	672.38
2575.243	674.38
2578.89	669.38
2582.533	658.38
2586.173	641.38
2589.809	655.38
2593.443	638.38
2597.073	635.38
2600.701	639.38
2604.325	623.38
2607.946	623.38
2611.564	619.38
2615.178	608.38
2618.79	604.38
2622.398	596.38
2626.004	590.38
2629.606	573.38
2633.205	570.38
2636.801	565.38
2640.394	549.38
2643.983	541.38
2647.57	527.38
2651.153	532.38
2654.734	509.38
2658.311	508.38
2661.885	492.38
2665.456	497.38
2669.025	477.38
2672.589	474.38
2676.151	470.38
2679.71	457.38
2683.266	462.38
2686.819	439.38
2690.368	441.38
2693.915	424.38
2697.458	403.38
2700.999	405.38
2704.536	397.38
2708.071	384.38
2711.602	379.38
2715.13	353.38
2718.656	346.38
2722.178	335.38
2725.697	327.38
2729.214	333.38
2732.727	333.38
2736.237	337.38
2739.744	320.38
2743.249	323.38
2746.75	326.38
2750.248	316.38
2753.743	329.38
2757.236	328.38
2760.725	327.38
2764.211	333.38
2767.695	332.38
2771.175	331.38
2774.652	324.38
2778.127	323.38
2781.598	326.38
2785.067	306.38
2788.532	315.38
2791.995	293.38
2795.455	301.38
2798.911	309.38
2802.365	296.38
2805.816	282.38
2809.264	292.38
2812.709	292.38
2816.151	285.38
2819.59	293.38
2823.026	280.38
2826.46	289.38
2829.89	269.38
2833.318	272.38
2836.742	277.38
2840.164	262.38
2843.583	264.38
2846.999	273.38
2850.412	261.38
2853.822	256.38
2857.229	267.38
2860.634	261.38
2864.035	255.38
2867.434	255.38
2870.83	248.38
2874.223	251.38
2877.613	247.38
2881	236.38
2884.385	233.38
2887.766	225.38
2891.145	217.38
2894.521	207.38
2897.894	196.38
2901.264	196.38
2904.631	183.38
2907.996	182.38
2911.358	185.38
2914.717	174.38
2918.073	169.38
2921.426	169.38
2924.777	167.38
2928.124	160.38
2931.469	157.38
2934.811	158.38
2938.15	151.38
2941.487	143.38
2944.821	138.38
2948.152	126.38
2951.48	110.38
2954.805	120.38
2958.128	109.38
2961.447	101.38
2964.765	101.38
2968.079	102.38
2971.39	100.38
2974.699	97.38
2978.005	92.38
2981.308	80.38
2984.609	88.38
2987.907	95.38
2991.202	85.38
2994.494	90.38
2997.784	89.38
3001.07	83.38
3004.355	92.38
3007.636	92.38
3010.915	83.38
3014.191	78.38
3017.464	66.38
3020.734	65.38
3024.002	61.38
3027.267	51.38
3030.53	51.38
3033.789	56.38
3037.046	52.38
3040.301	39.38
3043.552	29.38
3046.801	33.38
3050.048	25.38
3053.291	28.38
3056.532	27.38
3059.771	33.38
3063.006	13.38
3066.239	27.38
3069.469	30.38
3072.697	19.38
3075.922	14.38
3079.144	12.38
3082.364	12.38
3085.581	11.38
3088.795	1.38
3092.007	0.38
3095.216	3.38
3098.423	-3.62
3101.627	4.38
3104.828	0.38
3108.026	1.38
3111.222	-8.62
3114.416	-1.62
3117.607	-20.62
3120.795	-14.62
3123.98	-19.62
3127.163	-12.62
3130.344	-17.62
3133.521	-21.62
3136.696	-18.62
3139.869	-16.62
3143.039	-21.62
3146.206	-24.62
3149.371	-27.62
3152.533	-30.62
3155.693	-37.62
3158.85	-31.62
3162.005	-35.62
3165.157	-47.62
3168.306	-38.62
3171.453	-53.62
3174.597	-40.62
3177.739	-50.62
3180.878	-56.62
3184.014	-60.62
3187.149	-55.62
3190.28	-58.62
3193.409	-62.62
3196.536	-75.62
3199.659	-71.62
3202.781	-74.62
3205.9	-76.62
3209.016	-81.62
3212.13	-74.62
3215.241	-76.62
3218.35	-81.62
3221.456	-82.62
3224.56	-84.62
3227.661	-85.62
3230.76	-91.62
3233.856	-97.62
3236.95	-84.62
3240.041	-95.62
3243.13	-95.62
3246.216	-93.62
3249.3	-95.62
3252.382	-95.62
3255.46	-98.62
3258.537	-61.62
3261.611	-87.62
3264.682	-97.62
3267.751	-91.62
3270.818	-98.62
3273.882	-101.62
3276.943	-106.62
3280.002	-100.62
3283.059	-100.62
3286.113	-98.62
3289.165	-100.62
3292.214	-105.62
3295.261	-106.62
3298.306	-94.62
3301.348	-109.62
3304.387	-115.62
3307.425	-115.62
3310.459	-113.62
3313.492	-111.62
3316.521	-117.62
3319.549	-118.62
3322.574	-124.62
3325.597	-120.62
3328.617	-118.62
3331.635	-130.62
3334.65	-127.62
3337.663	-125.62
3340.674	-122.62
3343.682	-126.62
3346.688	-129.62
3349.691	-131.62
3352.692	-127.62
3355.691	-130.62
3358.687	-131.62
3361.681	-132.62
3364.673	-137.62
3367.662	-131.62
3370.649	-138.62
3373.633	-130.62
3376.615	-134.62
3379.595	-134.62
3382.572	-133.62
3385.547	-136.62
3388.52	-135.62
3391.49	-139.62
3394.458	-141.62
3397.424	-137.62
3400.387	-137.62
3403.348	-142.62
3406.307	-144.62
3409.263	-142.62
3412.217	-141.62
3415.168	-148.62
3418.118	-138.62
3421.065	-144.62
3424.009	-142.62
3426.951	-147.62
3429.891	-146.62
3432.829	-150.62
3435.764	-149.62
3438.697	-151.62
3441.628	-146.62
3444.557	-146.62
3447.483	-153.62
3450.407	-154.62
3453.328	-147.62
3456.247	-150.62
3459.164	-148.62
3462.079	-155.62
3464.991	-151.62
3467.902	-163.62
3470.809	-164.62
3473.715	-158.62
3476.618	-155.62
3479.519	-152.62
3482.418	-156.62
3485.315	-162.62
3488.209	-168.62
3491.101	-154.62
3493.99	-157.62
3496.878	-161.62
3499.763	-164.62
3502.646	-159.62
3505.527	-164.62
3508.405	-166.62
3511.281	-162.62
3514.155	-164.62
3517.027	-166.62
3519.897	-160.62
3522.764	-162.62
3525.629	-168.62
3528.492	-163.62
3531.352	-167.62
3534.211	-171.62
3537.067	-168.62
3539.921	-165.62
3542.773	-169.62
3545.622	-172.62
3548.469	-172.62
3551.315	-162.62
3554.157	-171.62
3556.998	-174.62
3559.837	-171.62
3562.673	-164.62
3565.507	-166.62
3568.339	-170.62
3571.169	-170.62
3573.996	-173.62
3576.822	-170.62
3579.645	-177.62
3582.466	-175.62
3585.285	-177.62
3588.101	-180.62
3590.916	-184.62
3593.728	-170.62
3596.538	-179.62
3599.346	-183.62
3602.152	-178.62
3604.956	-176.62
3607.757	-176.62
3610.556	-174.62
3613.354	-176.62
3616.149	-180.62
3618.942	-179.62
3621.732	-180.62
3624.521	-174.62
3627.307	-177.62
3630.092	-175.62
3632.874	-179.62
3635.654	-174.62
3638.432	-174.62
3641.208	-178.62
3643.982	-174.62
3646.753	-181.62
3649.523	-176.62
3652.29	-183.62
3655.055	-177.62
3657.818	-181.62
3660.579	-182.62
3663.338	-179.62
3666.095	-182.62
3668.849	-181.62
3671.602	-182.62
3674.352	-184.62
3677.101	-182.62
3679.847	-186.62
3682.591	-183.62
3685.333	-183.62
3688.073	-186.62
3690.811	-182.62
3693.547	-181.62
3696.281	-176.62
3699.013	-180.62
3701.742	-184.62
3704.47	-189.62
3707.195	-180.62
3709.919	-180.62
3712.64	-188.62
3715.359	-186.62
3718.076	-182.62
3720.792	-187.62
3723.505	-181.62
3726.216	-191.62
3728.925	-183.62
3731.632	-185.62
3734.336	-187.62
3737.039	-193.62
3739.74	-186.62
3742.439	-183.62
3745.136	-183.62
3747.83	-189.62
3750.523	-185.62
3753.213	-199.62
3755.902	-188.62
3758.589	-186.62
3761.273	-190.62
3763.956	-185.62
3766.636	-183.62
3769.315	-186.62
3771.991	-186.62
3774.665	-180.62
3777.338	-185.62
3780.008	-197.62
3782.677	-186.62
3785.343	-191.62
3788.007	-191.62
3790.67	-185.62
3793.33	-186.62
3795.989	-182.62
3798.645	-188.62
3801.299	-185.62
3803.952	-187.62
3806.602	-187.62
3809.251	-187.62
3811.897	-185.62
3814.542	-185.62
3817.184	-185.62
3819.825	-186.62
3822.463	-182.62
3825.1	-190.62
3827.735	-187.62
3830.367	-186.62
3832.998	-182.62
3835.627	-182.62
3838.253	-188.62
3840.878	-185.62
3843.501	-185.62
3846.122	-189.62
3848.741	-189.62
3851.358	-185.62
3853.973	-182.62
3856.586	-190.62
3859.197	-182.62
3861.806	-188.62
3864.414	-185.62
3867.019	-183.62
3869.622	-179.62
3872.224	-169.62
3874.823	-150.62
3877.421	-129.62
3880.016	-92.62
3882.61	-50.62
3885.202	-38.62
3887.792	-74.62
3890.38	-125.62
3892.966	-161.62
3895.55	-174.62
3898.132	-187.62
3900.713	-188.62
3903.291	-191.62
3905.868	-192.62
3908.442	-189.62
3911.015	-193.62
3913.586	-194.62
3916.155	-190.62
3918.722	-195.62
3921.287	-191.62
3923.85	-197.62
3926.411	-195.62
3928.971	-189.62
3931.528	-189.62
3934.084	-189.62
3936.638	-191.62
3939.19	-198.62
3941.74	-193.62
3944.288	-195.62
3946.834	-191.62
3949.378	-191.62
3951.921	-190.62
3954.462	-191.62
3957	-195.62
3959.537	-185.62
3962.072	-183.62
3964.606	-188.62
3967.137	-190.62
3969.667	-190.62
3972.194	-188.62
3974.72	-194.62
3977.244	-189.62
3979.766	-185.62
3982.286	-183.62
3984.805	-188.62
3987.321	-184.62
3989.836	-188.62
3992.349	-182.62
3994.86	-185.62
3997.369	-187.62
3999.877	-184.62
4002.382	-181.62
4004.886	-181.62
4007.388	-178.62
4009.888	-184.62
4012.386	-187.62
4014.883	-186.62
4017.377	-181.62
4019.87	-180.62
4022.361	-187.62
4024.85	-187.62
4027.338	-181.62
4029.823	-184.62
4032.307	-181.62
4034.789	-185.62
4037.269	-185.62
4039.747	-190.62
4042.224	-184.62
4044.699	-186.62
4047.172	-186.62
4049.643	-178.62
4052.112	-184.62
4054.58	-188.62
4057.046	-182.62
4059.51	-189.62
4061.972	-186.62
4064.432	-183.62
4066.891	-188.62
4069.348	-182.62
4071.803	-186.62
4074.256	-184.62
4076.708	-184.62
4079.158	-186.62
4081.606	-183.62
4084.052	-186.62
4086.497	-187.62
4088.939	-190.62
4091.38	-189.62
4093.819	-187.62
4096.257	-195.62
4098.693	-197.62
4101.127	-196.62
4103.559	-195.62
4105.989	-23.62
4108.418	-21.62
4110.845	-25.62
4113.27	-18.62
4115.694	-18.62
4118.115	-4.62
4120.535	-186.62
4122.954	-187.62
4125.37	-189.62
4127.785	-191.62
4130.198	-186.62
4132.609	-187.62
4135.019	-195.62
4137.427	-195.62
4139.833	-197.62
4142.237	-203.62