File: Data/Raman/2017-08-29 - Alluminum 2/Aug 29 2017 - Aluminum 2/EC 110 2_RamanShift_1.txt
Data from EC 110 2_RamanShift_1.txt Node

Date: Tue Aug 29 12:10:07 IDT 2017
User: aro
Spectrometer: QEPB0276
Trigger mode: 0
Integration Time (sec): 3.000000E1
Scans to average: 1
Electric dark correction enabled: true
Nonlinearity correction enabled: false
Boxcar width: 0
XAxis mode: Raman Shifts
Number of Pixels in Spectrum: 1044
>>>>>Begin Spectral Data<<<<<
160.701	36.38
166.742	47.38
172.777	101.38
178.805	270.38
184.826	659.38
190.841	1351.38
196.849	2136.38
202.85	2753.38
208.845	3008.38
214.833	3073.38
220.815	3100.38
226.789	3166.38
232.758	3265.38
238.719	3335.38
244.674	3416.38
250.623	3467.38
256.565	3489.38
262.5	3527.38
268.429	3550.38
274.351	3616.38
280.267	3685.38
286.176	3742.38
292.079	3771.38
297.975	3833.38
303.865	3902.38
309.748	3895.38
315.625	3932.38
321.495	3970.38
327.359	4010.38
333.217	4010.38
339.068	4055.38
344.912	4089.38
350.751	4109.38
356.583	4140.38
362.408	4152.38
368.227	4214.38
374.04	4342.38
379.847	4543.38
385.647	4641.38
391.44	4551.38
397.228	4403.38
403.009	4441.38
408.784	4702.38
414.553	5289.38
420.315	6022.38
426.071	6012.38
431.821	5302.38
437.565	4682.38
443.302	4452.38
449.033	4360.38
454.758	4296.38
460.477	4254.38
466.189	4163.38
471.896	4116.38
477.596	4051.38
483.29	4064.38
488.978	4045.38
494.66	3991.38
500.335	3855.38
506.005	3637.38
511.668	3389.38
517.325	3173.38
522.977	2998.38
528.622	2878.38
534.261	2779.38
539.894	2705.38
545.521	2641.38
551.141	2617.38
556.756	2584.38
562.365	2565.38
567.968	2552.38
573.565	2542.38
579.155	2541.38
584.74	2534.38
590.319	2512.38
595.892	2494.38
601.459	2512.38
607.02	2485.38
612.575	2467.38
618.124	2468.38
623.667	2413.38
629.204	2390.38
634.735	2448.38
640.261	2576.38
645.781	2820.38
651.294	2890.38
656.802	2708.38
662.304	2463.38
667.8	2312.38
673.29	2279.38
678.775	2243.38
684.254	2211.38
689.726	2216.38
695.193	2209.38
700.655	2173.38
706.11	2170.38
711.56	2148.38
717.004	2126.38
722.442	2140.38
727.874	2124.38
733.301	2147.38
738.722	2155.38
744.137	2189.38
749.547	2261.38
754.951	2291.38
760.349	2280.38
765.741	2204.38
771.128	2192.38
776.509	2191.38
781.885	2251.38
787.254	2272.38
792.618	2289.38
797.977	2294.38
803.33	2259.38
808.677	2248.38
814.019	2228.38
819.355	2199.38
824.686	2196.38
830.011	2168.38
835.33	2132.38
840.644	2123.38
845.952	2113.38
851.255	2089.38
856.552	2041.38
861.844	2005.38
867.13	1997.38
872.41	1960.38
877.686	1960.38
882.955	1924.38
888.219	1905.38
893.478	1893.38
898.731	1874.38
903.979	1861.38
909.221	1839.38
914.458	1840.38
919.69	1833.38
924.916	1862.38
930.136	1840.38
935.351	1838.38
940.561	1837.38
945.766	1844.38
950.965	1833.38
956.158	1818.38
961.347	1790.38
966.529	1799.38
971.707	1768.38
976.879	1740.38
982.046	1722.38
987.208	1734.38
992.364	1724.38
997.515	1746.38
1002.66	1722.38
1007.801	1773.38
1012.936	1781.38
1018.066	1788.38
1023.19	1801.38
1028.309	1829.38
1033.423	1815.38
1038.532	1807.38
1043.636	1810.38
1048.734	1800.38
1053.827	1793.38
1058.915	1754.38
1063.998	1744.38
1069.075	1751.38
1074.147	1758.38
1079.214	1764.38
1084.276	1746.38
1089.333	1752.38
1094.385	1752.38
1099.431	1753.38
1104.472	1720.38
1109.509	1722.38
1114.54	1685.38
1119.565	1648.38
1124.586	1627.38
1129.602	1599.38
1134.613	1602.38
1139.618	1589.38
1144.619	1609.38
1149.614	1608.38
1154.604	1609.38
1159.589	1627.38
1164.57	1629.38
1169.545	1632.38
1174.515	1622.38
1179.48	1624.38
1184.44	1606.38
1189.395	1598.38
1194.345	1586.38
1199.29	1576.38
1204.23	1595.38
1209.165	1596.38
1214.095	1605.38
1219.021	1606.38
1223.941	1615.38
1228.856	1627.38
1233.766	1608.38
1238.672	1606.38
1243.572	1600.38
1248.467	1577.38
1253.358	1544.38
1258.244	1530.38
1263.124	1492.38
1268	1476.38
1272.871	1434.38
1277.737	1444.38
1282.599	1437.38
1287.455	1421.38
1292.306	1425.38
1297.153	1434.38
1301.995	1439.38
1306.832	1441.38
1311.664	1442.38
1316.491	1430.38
1321.314	1428.38
1326.132	1409.38
1330.945	1394.38
1335.753	1354.38
1340.556	1322.38
1345.354	1320.38
1350.148	1303.38
1354.937	1295.38
1359.722	1290.38
1364.501	1284.38
1369.276	1299.38
1374.046	1288.38
1378.811	1302.38
1383.572	1317.38
1388.327	1303.38
1393.079	1290.38
1397.825	1255.38
1402.567	1234.38
1407.304	1219.38
1412.036	1220.38
1416.764	1206.38
1421.487	1205.38
1426.205	1206.38
1430.919	1198.38
1435.628	1221.38
1440.333	1228.38
1445.032	1247.38
1449.727	1223.38
1454.418	1215.38
1459.104	1223.38
1463.785	1190.38
1468.462	1168.38
1473.134	1185.38
1477.802	1146.38
1482.465	1135.38
1487.123	1125.38
1491.777	1127.38
1496.426	1142.38
1501.071	1151.38
1505.711	1172.38
1510.347	1163.38
1514.978	1169.38
1519.604	1198.38
1524.226	1187.38
1528.844	1176.38
1533.457	1156.38
1538.065	1161.38
1542.669	1128.38
1547.269	1130.38
1551.864	1129.38
1556.454	1107.38
1561.041	1107.38
1565.622	1109.38
1570.199	1088.38
1574.772	1065.38
1579.34	1062.38
1583.904	1083.38
1588.464	1062.38
1593.019	1071.38
1597.569	1052.38
1602.115	1044.38
1606.657	1023.38
1611.195	1018.38
1615.728	980.38
1620.256	997.38
1624.78	974.38
1629.3	975.38
1633.816	975.38
1638.327	968.38
1642.834	983.38
1647.336	986.38
1651.834	985.38
1656.328	979.38
1660.817	987.38
1665.302	974.38
1669.783	970.38
1674.259	979.38
1678.732	941.38
1683.199	945.38
1687.663	926.38
1692.122	905.38
1696.577	907.38
1701.028	916.38
1705.474	903.38
1709.917	930.38
1714.355	921.38
1718.788	901.38
1723.218	910.38
1727.643	905.38
1732.064	900.38
1736.481	879.38
1740.893	857.38
1745.301	835.38
1749.705	826.38
1754.105	791.38
1758.501	779.38
1762.893	770.38
1767.28	759.38
1771.663	748.38
1776.042	727.38
1780.417	735.38
1784.787	731.38
1789.154	745.38
1793.516	736.38
1797.874	757.38
1802.228	758.38
1806.578	770.38
1810.924	755.38
1815.266	741.38
1819.603	725.38
1823.937	730.38
1828.266	714.38
1832.591	716.38
1836.913	696.38
1841.23	692.38
1845.543	695.38
1849.852	692.38
1854.156	685.38
1858.457	694.38
1862.754	682.38
1867.047	679.38
1871.335	698.38
1875.62	695.38
1879.9	696.38
1884.177	685.38
1888.449	678.38
1892.718	678.38
1896.982	678.38
1901.243	668.38
1905.499	653.38
1909.752	658.38
1914	658.38
1918.245	666.38
1922.485	673.38
1926.722	670.38
1930.954	669.38
1935.183	682.38
1939.408	681.38
1943.628	690.38
1947.845	686.38
1952.058	667.38
1956.267	666.38
1960.472	651.38
1964.673	636.38
1968.87	610.38
1973.063	614.38
1977.252	597.38
1981.438	596.38
1985.619	568.38
1989.797	567.38
1993.971	567.38
1998.14	563.38
2002.306	554.38
2006.469	558.38
2010.627	557.38
2014.781	557.38
2018.932	548.38
2023.078	540.38
2027.221	540.38
2031.36	515.38
2035.495	523.38
2039.627	495.38
2043.754	504.38
2047.878	503.38
2051.998	494.38
2056.114	498.38
2060.226	491.38
2064.334	510.38
2068.439	499.38
2072.54	499.38
2076.637	488.38
2080.73	508.38
2084.82	510.38
2088.906	517.38
2092.988	509.38
2097.066	511.38
2101.14	497.38
2105.211	495.38
2109.278	496.38
2113.342	491.38
2117.401	489.38
2121.457	475.38
2125.509	457.38
2129.558	459.38
2133.602	459.38
2137.643	458.38
2141.681	447.38
2145.714	450.38
2149.744	440.38
2153.77	447.38
2157.793	445.38
2161.812	432.38
2165.827	432.38
2169.838	418.38
2173.846	424.38
2177.851	417.38
2181.851	410.38
2185.848	391.38
2189.841	395.38
2193.831	399.38
2197.817	392.38
2201.799	393.38
2205.778	396.38
2209.753	389.38
2213.725	395.38
2217.693	388.38
2221.657	391.38
2225.618	386.38
2229.575	388.38
2233.529	386.38
2237.479	385.38
2241.425	379.38
2245.368	380.38
2249.307	374.38
2253.243	366.38
2257.175	362.38
2261.104	352.38
2265.029	357.38
2268.95	337.38
2272.868	348.38
2276.783	333.38
2280.694	327.38
2284.601	337.38
2288.505	331.38
2292.405	332.38
2296.302	319.38
2300.195	315.38
2304.085	314.38
2307.971	315.38
2311.854	311.38
2315.734	301.38
2319.609	301.38
2323.482	298.38
2327.351	309.38
2331.216	336.38
2335.078	333.38
2338.937	315.38
2342.792	300.38
2346.643	288.38
2350.492	281.38
2354.336	286.38
2358.178	286.38
2362.015	282.38
2365.85	293.38
2369.681	289.38
2373.508	283.38
2377.333	284.38
2381.153	288.38
2384.971	288.38
2388.785	279.38
2392.595	287.38
2396.402	284.38
2400.206	284.38
2404.007	271.38
2407.804	268.38
2411.597	272.38
2415.388	272.38
2419.174	275.38
2422.958	272.38
2426.738	270.38
2430.515	265.38
2434.289	261.38
2438.059	255.38
2441.825	255.38
2445.589	255.38
2449.349	252.38
2453.106	243.38
2456.859	240.38
2460.61	244.38
2464.356	227.38
2468.1	227.38
2471.84	223.38
2475.577	228.38
2479.311	227.38
2483.041	233.38
2486.768	222.38
2490.492	212.38
2494.213	219.38
2497.93	216.38
2501.644	226.38
2505.355	211.38
2509.062	208.38
2512.766	214.38
2516.467	215.38
2520.165	215.38
2523.859	204.38
2527.551	207.38
2531.239	204.38
2534.923	203.38
2538.605	213.38
2542.283	207.38
2545.958	211.38
2549.63	208.38
2553.299	198.38
2556.964	209.38
2560.626	193.38
2564.285	198.38
2567.941	206.38
2571.594	195.38
2575.243	190.38
2578.89	192.38
2582.533	198.38
2586.173	188.38
2589.809	181.38
2593.443	187.38
2597.073	188.38
2600.701	184.38
2604.325	186.38
2607.946	181.38
2611.564	179.38
2615.178	177.38
2618.79	168.38
2622.398	167.38
2626.004	161.38
2629.606	167.38
2633.205	166.38
2636.801	154.38
2640.394	164.38
2643.983	148.38
2647.57	146.38
2651.153	145.38
2654.734	141.38
2658.311	142.38
2661.885	138.38
2665.456	131.38
2669.025	127.38
2672.589	132.38
2676.151	129.38
2679.71	119.38
2683.266	126.38
2686.819	111.38
2690.368	111.38
2693.915	106.38
2697.458	107.38
2700.999	101.38
2704.536	101.38
2708.071	91.38
2711.602	93.38
2715.13	85.38
2718.656	84.38
2722.178	87.38
2725.697	77.38
2729.214	87.38
2732.727	88.38
2736.237	87.38
2739.744	83.38
2743.249	83.38
2746.75	80.38
2750.248	83.38
2753.743	79.38
2757.236	90.38
2760.725	83.38
2764.211	84.38
2767.695	84.38
2771.175	83.38
2774.652	77.38
2778.127	85.38
2781.598	69.38
2785.067	75.38
2788.532	85.38
2791.995	64.38
2795.455	75.38
2798.911	74.38
2802.365	74.38
2805.816	75.38
2809.264	58.38
2812.709	68.38
2816.151	66.38
2819.59	78.38
2823.026	73.38
2826.46	70.38
2829.89	68.38
2833.318	67.38
2836.742	67.38
2840.164	64.38
2843.583	70.38
2846.999	71.38
2850.412	52.38
2853.822	65.38
2857.229	57.38
2860.634	62.38
2864.035	62.38
2867.434	60.38
2870.83	60.38
2874.223	53.38
2877.613	49.38
2881	44.38
2884.385	39.38
2887.766	44.38
2891.145	45.38
2894.521	41.38
2897.894	29.38
2901.264	41.38
2904.631	29.38
2907.996	24.38
2911.358	26.38
2914.717	23.38
2918.073	18.38
2921.426	17.38
2924.777	18.38
2928.124	10.38
2931.469	16.38
2934.811	21.38
2938.15	11.38
2941.487	15.38
2944.821	7.38
2948.152	1.38
2951.48	-0.62
2954.805	15.38
2958.128	3.38
2961.447	13.38
2964.765	0.38
2968.079	2.38
2971.39	-0.62
2974.699	-0.62
2978.005	2.38
2981.308	-9.62
2984.609	-7.62
2987.907	0.38
2991.202	-7.62
2994.494	1.38
2997.784	-6.62
3001.07	-4.62
3004.355	2.38
3007.636	-5.62
3010.915	-6.62
3014.191	-10.62
3017.464	-10.62
3020.734	-8.62
3024.002	-19.62
3027.267	-12.62
3030.53	-13.62
3033.789	-11.62
3037.046	-17.62
3040.301	-23.62
3043.552	-22.62
3046.801	-26.62
3050.048	-32.62
3053.291	-24.62
3056.532	-23.62
3059.771	-20.62
3063.006	-32.62
3066.239	-25.62
3069.469	-26.62
3072.697	-37.62
3075.922	-27.62
3079.144	-27.62
3082.364	-34.62
3085.581	-23.62
3088.795	-32.62
3092.007	-35.62
3095.216	-28.62
3098.423	-35.62
3101.627	-31.62
3104.828	-34.62
3108.026	-31.62
3111.222	-35.62
3114.416	-33.62
3117.607	-35.62
3120.795	-33.62
3123.98	-40.62
3127.163	-38.62
3130.344	-36.62
3133.521	-41.62
3136.696	-36.62
3139.869	-36.62
3143.039	-39.62
3146.206	-45.62
3149.371	-46.62
3152.533	-49.62
3155.693	-46.62
3158.85	-50.62
3162.005	-49.62
3165.157	-49.62
3168.306	-46.62
3171.453	-53.62
3174.597	-51.62
3177.739	-56.62
3180.878	-64.62
3184.014	-55.62
3187.149	-59.62
3190.28	-54.62
3193.409	-57.62
3196.536	-65.62
3199.659	-57.62
3202.781	-63.62
3205.9	-60.62
3209.016	-71.62
3212.13	-65.62
3215.241	-66.62
3218.35	-61.62
3221.456	-68.62
3224.56	-63.62
3227.661	-68.62
3230.76	-72.62
3233.856	-73.62
3236.95	-73.62
3240.041	-69.62
3243.13	-69.62
3246.216	-67.62
3249.3	-71.62
3252.382	-70.62
3255.46	-69.62
3258.537	-44.62
3261.611	-72.62
3264.682	-72.62
3267.751	-71.62
3270.818	-77.62
3273.882	-73.62
3276.943	-72.62
3280.002	-68.62
3283.059	-77.62
3286.113	-67.62
3289.165	-72.62
3292.214	-75.62
3295.261	-69.62
3298.306	-74.62
3301.348	-78.62
3304.387	-76.62
3307.425	-78.62
3310.459	-80.62
3313.492	-77.62
3316.521	-82.62
3319.549	-70.62
3322.574	-78.62
3325.597	-84.62
3328.617	-77.62
3331.635	-80.62
3334.65	-79.62
3337.663	-84.62
3340.674	-77.62
3343.682	-82.62
3346.688	-83.62
3349.691	-84.62
3352.692	-84.62
3355.691	-84.62
3358.687	-81.62
3361.681	-86.62
3364.673	-87.62
3367.662	-83.62
3370.649	-84.62
3373.633	-81.62
3376.615	-84.62
3379.595	-85.62
3382.572	-83.62
3385.547	-85.62
3388.52	-82.62
3391.49	-89.62
3394.458	-87.62
3397.424	-86.62
3400.387	-82.62
3403.348	-88.62
3406.307	-86.62
3409.263	-92.62
3412.217	-86.62
3415.168	-91.62
3418.118	-88.62
3421.065	-90.62
3424.009	-90.62
3426.951	-89.62
3429.891	-88.62
3432.829	-88.62
3435.764	-92.62
3438.697	-90.62
3441.628	-89.62
3444.557	-88.62
3447.483	-94.62
3450.407	-97.62
3453.328	-91.62
3456.247	-94.62
3459.164	-92.62
3462.079	-90.62
3464.991	-91.62
3467.902	-94.62
3470.809	-93.62
3473.715	-95.62
3476.618	-92.62
3479.519	-92.62
3482.418	-96.62
3485.315	-97.62
3488.209	-99.62
3491.101	-94.62
3493.99	-96.62
3496.878	-95.62
3499.763	-97.62
3502.646	-94.62
3505.527	-100.62
3508.405	-94.62
3511.281	-97.62
3514.155	-96.62
3517.027	-97.62
3519.897	-101.62
3522.764	-96.62
3525.629	-103.62
3528.492	-98.62
3531.352	-101.62
3534.211	-102.62
3537.067	-101.62
3539.921	-100.62
3542.773	-99.62
3545.622	-103.62
3548.469	-105.62
3551.315	-97.62
3554.157	-99.62
3556.998	-101.62
3559.837	-101.62
3562.673	-99.62
3565.507	-99.62
3568.339	-100.62
3571.169	-103.62
3573.996	-101.62
3576.822	-101.62
3579.645	-107.62
3582.466	-98.62
3585.285	-104.62
3588.101	-104.62
3590.916	-107.62
3593.728	-97.62
3596.538	-101.62
3599.346	-103.62
3602.152	-101.62
3604.956	-101.62
3607.757	-99.62
3610.556	-103.62
3613.354	-99.62
3616.149	-111.62
3618.942	-98.62
3621.732	-105.62
3624.521	-100.62
3627.307	-105.62
3630.092	-102.62
3632.874	-104.62
3635.654	-100.62
3638.432	-104.62
3641.208	-103.62
3643.982	-103.62
3646.753	-102.62
3649.523	-103.62
3652.29	-103.62
3655.055	-103.62
3657.818	-108.62
3660.579	-107.62
3663.338	-100.62
3666.095	-107.62
3668.849	-106.62
3671.602	-103.62
3674.352	-110.62
3677.101	-106.62
3679.847	-107.62
3682.591	-103.62
3685.333	-101.62
3688.073	-109.62
3690.811	-106.62
3693.547	-104.62
3696.281	-109.62
3699.013	-105.62
3701.742	-109.62
3704.47	-113.62
3707.195	-107.62
3709.919	-107.62
3712.64	-109.62
3715.359	-111.62
3718.076	-104.62
3720.792	-107.62
3723.505	-111.62
3726.216	-112.62
3728.925	-108.62
3731.632	-107.62
3734.336	-107.62
3737.039	-109.62
3739.74	-105.62
3742.439	-104.62
3745.136	-110.62
3747.83	-112.62
3750.523	-106.62
3753.213	-122.62
3755.902	-110.62
3758.589	-104.62
3761.273	-114.62
3763.956	-110.62
3766.636	-102.62
3769.315	-109.62
3771.991	-108.62
3774.665	-105.62
3777.338	-105.62
3780.008	-117.62
3782.677	-109.62
3785.343	-115.62
3788.007	-111.62
3790.67	-107.62
3793.33	-112.62
3795.989	-109.62
3798.645	-111.62
3801.299	-110.62
3803.952	-106.62
3806.602	-111.62
3809.251	-110.62
3811.897	-107.62
3814.542	-109.62
3817.184	-107.62
3819.825	-111.62
3822.463	-106.62
3825.1	-108.62
3827.735	-111.62
3830.367	-110.62
3832.998	-104.62
3835.627	-105.62
3838.253	-102.62
3840.878	-110.62
3843.501	-105.62
3846.122	-112.62
3848.741	-108.62
3851.358	-106.62
3853.973	-108.62
3856.586	-116.62
3859.197	-108.62
3861.806	-108.62
3864.414	-106.62
3867.019	-104.62
3869.622	-101.62
3872.224	-85.62
3874.823	-68.62
3877.421	-36.62
3880.016	2.38
3882.61	54.38
3885.202	80.38
3887.792	43.38
3890.38	-19.62
3892.966	-64.62
3895.55	-89.62
3898.132	-102.62
3900.713	-102.62
3903.291	-108.62
3905.868	-108.62
3908.442	-109.62
3911.015	-110.62
3913.586	-109.62
3916.155	-108.62
3918.722	-107.62
3921.287	-108.62
3923.85	-112.62
3926.411	-107.62
3928.971	-111.62
3931.528	-107.62
3934.084	-111.62
3936.638	-112.62
3939.19	-115.62
3941.74	-107.62
3944.288	-112.62
3946.834	-108.62
3949.378	-108.62
3951.921	-105.62
3954.462	-112.62
3957	-105.62
3959.537	-102.62
3962.072	-102.62
3964.606	-104.62
3967.137	-107.62
3969.667	-108.62
3972.194	-106.62
3974.72	-105.62
3977.244	-107.62
3979.766	-112.62
3982.286	-106.62
3984.805	-104.62
3987.321	-103.62
3989.836	-108.62
3992.349	-108.62
3994.86	-113.62
3997.369	-108.62
3999.877	-106.62
4002.382	-106.62
4004.886	-106.62
4007.388	-106.62
4009.888	-108.62
4012.386	-106.62
4014.883	-111.62
4017.377	-104.62
4019.87	-107.62
4022.361	-111.62
4024.85	-108.62
4027.338	-102.62
4029.823	-110.62
4032.307	-105.62
4034.789	-109.62
4037.269	-109.62
4039.747	-108.62
4042.224	-110.62
4044.699	-108.62
4047.172	-104.62
4049.643	-101.62
4052.112	-103.62
4054.58	-111.62
4057.046	-102.62
4059.51	-111.62
4061.972	-109.62
4064.432	-104.62
4066.891	-111.62
4069.348	-106.62
4071.803	-105.62
4074.256	-99.62
4076.708	-110.62
4079.158	-104.62
4081.606	-106.62
4084.052	-109.62
4086.497	-108.62
4088.939	-110.62
4091.38	-110.62
4093.819	-109.62
4096.257	-113.62
4098.693	-116.62
4101.127	-116.62
4103.559	-114.62
4105.989	36.38
4108.418	35.38
4110.845	33.38
4113.27	22.38
4115.694	20.38
4118.115	29.38
4120.535	-107.62
4122.954	-104.62
4125.37	-107.62
4127.785	-108.62
4130.198	-103.62
4132.609	-108.62
4135.019	-112.62
4137.427	-113.62
4139.833	-112.62
4142.237	-116.62