File: Data/Raman/2017-08-29 - Alluminum 2/Aug 29 2017 - Aluminum 2/EC 11 4_RamanShift_1.txt
Data from EC 11 4_RamanShift_1.txt Node

Date: Tue Aug 29 12:44:07 IDT 2017
User: aro
Spectrometer: QEPB0276
Trigger mode: 0
Integration Time (sec): 3.000000E1
Scans to average: 1
Electric dark correction enabled: true
Nonlinearity correction enabled: false
Boxcar width: 0
XAxis mode: Raman Shifts
Number of Pixels in Spectrum: 1044
>>>>>Begin Spectral Data<<<<<
160.701	5.75
166.742	47.75
172.777	154.75
178.805	470.75
184.826	1219.75
190.841	2508.75
196.849	4021.75
202.85	5156.75
208.845	5640.75
214.833	5820.75
220.815	5883.75
226.789	6058.75
232.758	6248.75
238.719	6430.75
244.674	6534.75
250.623	6629.75
256.565	6743.75
262.5	6777.75
268.429	6905.75
274.351	6964.75
280.267	7038.75
286.176	7150.75
292.079	7242.75
297.975	7312.75
303.865	7347.75
309.748	7386.75
315.625	7420.75
321.495	7476.75
327.359	7506.75
333.217	7493.75
339.068	7540.75
344.912	7542.75
350.751	7594.75
356.583	7573.75
362.408	7602.75
368.227	7654.75
374.04	7730.75
379.847	7892.75
385.647	7979.75
391.44	7915.75
397.228	7790.75
403.009	7803.75
408.784	8064.75
414.553	8507.75
420.315	9107.75
426.071	9120.75
431.821	8520.75
437.565	8018.75
443.302	7855.75
449.033	7769.75
454.758	7700.75
460.477	7603.75
466.189	7535.75
471.896	7523.75
477.596	7491.75
483.29	7451.75
488.978	7421.75
494.66	7400.75
500.335	7258.75
506.005	7062.75
511.668	6831.75
517.325	6635.75
522.977	6451.75
528.622	6352.75
534.261	6281.75
539.894	6217.75
545.521	6148.75
551.141	6137.75
556.756	6095.75
562.365	6033.75
567.968	6050.75
573.565	6015.75
579.155	6013.75
584.74	5980.75
590.319	5980.75
595.892	5909.75
601.459	5922.75
607.02	5890.75
612.575	5844.75
618.124	5813.75
623.667	5777.75
629.204	5729.75
634.735	5796.75
640.261	5842.75
645.781	6017.75
651.294	6086.75
656.802	5942.75
662.304	5713.75
667.8	5625.75
673.29	5573.75
678.775	5541.75
684.254	5502.75
689.726	5501.75
695.193	5433.75
700.655	5405.75
706.11	5413.75
711.56	5369.75
717.004	5331.75
722.442	5325.75
727.874	5350.75
733.301	5313.75
738.722	5292.75
744.137	5365.75
749.547	5369.75
754.951	5414.75
760.349	5398.75
765.741	5366.75
771.128	5345.75
776.509	5349.75
781.885	5393.75
787.254	5331.75
792.618	5408.75
797.977	5339.75
803.33	5315.75
808.677	5310.75
814.019	5270.75
819.355	5219.75
824.686	5180.75
830.011	5167.75
835.33	5161.75
840.644	5150.75
845.952	5148.75
851.255	5124.75
856.552	5059.75
861.844	5068.75
867.13	5034.75
872.41	5017.75
877.686	4975.75
882.955	4933.75
888.219	4910.75
893.478	4832.75
898.731	4809.75
903.979	4780.75
909.221	4738.75
914.458	4722.75
919.69	4728.75
924.916	4759.75
930.136	4762.75
935.351	4770.75
940.561	4751.75
945.766	4722.75
950.965	4743.75
956.158	4715.75
961.347	4666.75
966.529	4608.75
971.707	4576.75
976.879	4466.75
982.046	4462.75
987.208	4440.75
992.364	4446.75
997.515	4448.75
1002.66	4478.75
1007.801	4501.75
1012.936	4554.75
1018.066	4570.75
1023.19	4600.75
1028.309	4586.75
1033.423	4606.75
1038.532	4563.75
1043.636	4530.75
1048.734	4454.75
1053.827	4408.75
1058.915	4372.75
1063.998	4341.75
1069.075	4348.75
1074.147	4333.75
1079.214	4348.75
1084.276	4358.75
1089.333	4368.75
1094.385	4401.75
1099.431	4381.75
1104.472	4390.75
1109.509	4339.75
1114.54	4264.75
1119.565	4193.75
1124.586	4149.75
1129.602	4100.75
1134.613	4092.75
1139.618	4065.75
1144.619	4028.75
1149.614	4067.75
1154.604	4072.75
1159.589	4069.75
1164.57	4063.75
1169.545	4102.75
1174.515	4081.75
1179.48	4051.75
1184.44	4005.75
1189.395	4001.75
1194.345	3957.75
1199.29	3921.75
1204.23	3929.75
1209.165	3949.75
1214.095	3936.75
1219.021	3996.75
1223.941	3985.75
1228.856	3997.75
1233.766	3984.75
1238.672	3972.75
1243.572	3961.75
1248.467	3929.75
1253.358	3884.75
1258.244	3801.75
1263.124	3748.75
1268	3698.75
1272.871	3658.75
1277.737	3591.75
1282.599	3577.75
1287.455	3569.75
1292.306	3585.75
1297.153	3607.75
1301.995	3569.75
1306.832	3601.75
1311.664	3588.75
1316.491	3572.75
1321.314	3538.75
1326.132	3498.75
1330.945	3425.75
1335.753	3328.75
1340.556	3273.75
1345.354	3199.75
1350.148	3149.75
1354.937	3150.75
1359.722	3158.75
1364.501	3163.75
1369.276	3216.75
1374.046	3249.75
1378.811	3270.75
1383.572	3297.75
1388.327	3314.75
1393.079	3300.75
1397.825	3247.75
1402.567	3177.75
1407.304	3082.75
1412.036	3090.75
1416.764	3024.75
1421.487	3022.75
1426.205	2994.75
1430.919	3010.75
1435.628	3006.75
1440.333	2987.75
1445.032	3005.75
1449.727	2956.75
1454.418	2980.75
1459.104	2940.75
1463.785	2930.75
1468.462	2858.75
1473.134	2823.75
1477.802	2790.75
1482.465	2748.75
1487.123	2769.75
1491.777	2769.75
1496.426	2793.75
1501.071	2797.75
1505.711	2851.75
1510.347	2884.75
1514.978	2953.75
1519.604	2998.75
1524.226	3010.75
1528.844	2967.75
1533.457	2926.75
1538.065	2933.75
1542.669	2900.75
1547.269	2826.75
1551.864	2799.75
1556.454	2772.75
1561.041	2786.75
1565.622	2741.75
1570.199	2701.75
1574.772	2673.75
1579.34	2691.75
1583.904	2652.75
1588.464	2630.75
1593.019	2639.75
1597.569	2604.75
1602.115	2548.75
1606.657	2511.75
1611.195	2467.75
1615.728	2408.75
1620.256	2406.75
1624.78	2374.75
1629.3	2353.75
1633.816	2345.75
1638.327	2348.75
1642.834	2331.75
1647.336	2365.75
1651.834	2369.75
1656.328	2348.75
1660.817	2378.75
1665.302	2349.75
1669.783	2322.75
1674.259	2317.75
1678.732	2301.75
1683.199	2235.75
1687.663	2207.75
1692.122	2196.75
1696.577	2204.75
1701.028	2227.75
1705.474	2235.75
1709.917	2298.75
1714.355	2328.75
1718.788	2326.75
1723.218	2296.75
1727.643	2289.75
1732.064	2224.75
1736.481	2183.75
1740.893	2158.75
1745.301	2087.75
1749.705	2060.75
1754.105	1999.75
1758.501	1937.75
1762.893	1898.75
1767.28	1844.75
1771.663	1802.75
1776.042	1797.75
1780.417	1803.75
1784.787	1791.75
1789.154	1816.75
1793.516	1892.75
1797.874	1900.75
1802.228	1938.75
1806.578	1967.75
1810.924	1935.75
1815.266	1935.75
1819.603	1858.75
1823.937	1845.75
1828.266	1807.75
1832.591	1775.75
1836.913	1757.75
1841.23	1723.75
1845.543	1737.75
1849.852	1725.75
1854.156	1700.75
1858.457	1707.75
1862.754	1711.75
1867.047	1699.75
1871.335	1704.75
1875.62	1720.75
1879.9	1708.75
1884.177	1708.75
1888.449	1693.75
1892.718	1661.75
1896.982	1678.75
1901.243	1643.75
1905.499	1644.75
1909.752	1626.75
1914	1655.75
1918.245	1664.75
1922.485	1689.75
1926.722	1708.75
1930.954	1728.75
1935.183	1741.75
1939.408	1752.75
1943.628	1757.75
1947.845	1741.75
1952.058	1733.75
1956.267	1697.75
1960.472	1689.75
1964.673	1635.75
1968.87	1595.75
1973.063	1561.75
1977.252	1526.75
1981.438	1518.75
1985.619	1478.75
1989.797	1449.75
1993.971	1447.75
1998.14	1438.75
2002.306	1417.75
2006.469	1417.75
2010.627	1399.75
2014.781	1388.75
2018.932	1367.75
2023.078	1342.75
2027.221	1332.75
2031.36	1295.75
2035.495	1290.75
2039.627	1251.75
2043.754	1245.75
2047.878	1225.75
2051.998	1234.75
2056.114	1208.75
2060.226	1236.75
2064.334	1246.75
2068.439	1235.75
2072.54	1246.75
2076.637	1257.75
2080.73	1286.75
2084.82	1278.75
2088.906	1299.75
2092.988	1284.75
2097.066	1292.75
2101.14	1278.75
2105.211	1261.75
2109.278	1255.75
2113.342	1242.75
2117.401	1228.75
2121.457	1215.75
2125.509	1203.75
2129.558	1187.75
2133.602	1192.75
2137.643	1168.75
2141.681	1155.75
2145.714	1151.75
2149.744	1141.75
2153.77	1131.75
2157.793	1106.75
2161.812	1100.75
2165.827	1094.75
2169.838	1059.75
2173.846	1052.75
2177.851	1030.75
2181.851	1016.75
2185.848	1008.75
2189.841	988.75
2193.831	983.75
2197.817	978.75
2201.799	968.75
2205.778	965.75
2209.753	955.75
2213.725	956.75
2217.693	967.75
2221.657	967.75
2225.618	951.75
2229.575	957.75
2233.529	956.75
2237.479	950.75
2241.425	947.75
2245.368	941.75
2249.307	908.75
2253.243	900.75
2257.175	895.75
2261.104	888.75
2265.029	864.75
2268.95	866.75
2272.868	857.75
2276.783	833.75
2280.694	832.75
2284.601	816.75
2288.505	824.75
2292.405	815.75
2296.302	799.75
2300.195	795.75
2304.085	784.75
2307.971	785.75
2311.854	764.75
2315.734	762.75
2319.609	746.75
2323.482	746.75
2327.351	760.75
2331.216	779.75
2335.078	779.75
2338.937	754.75
2342.792	727.75
2346.643	712.75
2350.492	708.75
2354.336	710.75
2358.178	712.75
2362.015	725.75
2365.85	703.75
2369.681	720.75
2373.508	730.75
2377.333	728.75
2381.153	715.75
2384.971	707.75
2388.785	696.75
2392.595	690.75
2396.402	697.75
2400.206	682.75
2404.007	690.75
2407.804	682.75
2411.597	678.75
2415.388	681.75
2419.174	673.75
2422.958	665.75
2426.738	671.75
2430.515	658.75
2434.289	642.75
2438.059	652.75
2441.825	628.75
2445.589	649.75
2449.349	615.75
2453.106	610.75
2456.859	613.75
2460.61	595.75
2464.356	590.75
2468.1	574.75
2471.84	579.75
2475.577	586.75
2479.311	578.75
2483.041	570.75
2486.768	567.75
2490.492	558.75
2494.213	573.75
2497.93	555.75
2501.644	548.75
2505.355	555.75
2509.062	557.75
2512.766	552.75
2516.467	543.75
2520.165	545.75
2523.859	544.75
2527.551	541.75
2531.239	532.75
2534.923	537.75
2538.605	536.75
2542.283	537.75
2545.958	540.75
2549.63	532.75
2553.299	527.75
2556.964	529.75
2560.626	534.75
2564.285	527.75
2567.941	533.75
2571.594	520.75
2575.243	516.75
2578.89	517.75
2582.533	519.75
2586.173	501.75
2589.809	508.75
2593.443	502.75
2597.073	484.75
2600.701	474.75
2604.325	480.75
2607.946	473.75
2611.564	475.75
2615.178	466.75
2618.79	449.75
2622.398	437.75
2626.004	443.75
2629.606	429.75
2633.205	446.75
2636.801	424.75
2640.394	423.75
2643.983	410.75
2647.57	389.75
2651.153	393.75
2654.734	382.75
2658.311	383.75
2661.885	352.75
2665.456	364.75
2669.025	362.75
2672.589	360.75
2676.151	352.75
2679.71	342.75
2683.266	341.75
2686.819	326.75
2690.368	325.75
2693.915	320.75
2697.458	306.75
2700.999	287.75
2704.536	283.75
2708.071	280.75
2711.602	276.75
2715.13	259.75
2718.656	252.75
2722.178	249.75
2725.697	239.75
2729.214	245.75
2732.727	241.75
2736.237	247.75
2739.744	242.75
2743.249	247.75
2746.75	243.75
2750.248	242.75
2753.743	255.75
2757.236	251.75
2760.725	243.75
2764.211	239.75
2767.695	258.75
2771.175	250.75
2774.652	243.75
2778.127	242.75
2781.598	238.75
2785.067	227.75
2788.532	236.75
2791.995	221.75
2795.455	231.75
2798.911	230.75
2802.365	210.75
2805.816	220.75
2809.264	214.75
2812.709	218.75
2816.151	209.75
2819.59	221.75
2823.026	212.75
2826.46	213.75
2829.89	205.75
2833.318	202.75
2836.742	209.75
2840.164	197.75
2843.583	197.75
2846.999	202.75
2850.412	201.75
2853.822	189.75
2857.229	193.75
2860.634	192.75
2864.035	184.75
2867.434	184.75
2870.83	179.75
2874.223	174.75
2877.613	169.75
2881	170.75
2884.385	157.75
2887.766	161.75
2891.145	148.75
2894.521	152.75
2897.894	135.75
2901.264	130.75
2904.631	129.75
2907.996	119.75
2911.358	124.75
2914.717	120.75
2918.073	106.75
2921.426	105.75
2924.777	107.75
2928.124	99.75
2931.469	90.75
2934.811	90.75
2938.15	90.75
2941.487	91.75
2944.821	78.75
2948.152	71.75
2951.48	73.75
2954.805	81.75
2958.128	61.75
2961.447	70.75
2964.765	53.75
2968.079	66.75
2971.39	53.75
2974.699	61.75
2978.005	55.75
2981.308	64.75
2984.609	47.75
2987.907	54.75
2991.202	52.75
2994.494	60.75
2997.784	50.75
3001.07	50.75
3004.355	52.75
3007.636	48.75
3010.915	37.75
3014.191	41.75
3017.464	41.75
3020.734	35.75
3024.002	25.75
3027.267	26.75
3030.53	13.75
3033.789	31.75
3037.046	16.75
3040.301	16.75
3043.552	-0.25
3046.801	9.75
3050.048	-1.25
3053.291	8.75
3056.532	5.75
3059.771	12.75
3063.006	0.75
3066.239	0.75
3069.469	11.75
3072.697	-6.25
3075.922	-3.25
3079.144	-2.25
3082.364	4.75
3085.581	-13.25
3088.795	-13.25
3092.007	-9.25
3095.216	-11.25
3098.423	-13.25
3101.627	-12.25
3104.828	-13.25
3108.026	-12.25
3111.222	-22.25
3114.416	-8.25
3117.607	-17.25
3120.795	-12.25
3123.98	-22.25
3127.163	-20.25
3130.344	-20.25
3133.521	-24.25
3136.696	-18.25
3139.869	-25.25
3143.039	-30.25
3146.206	-30.25
3149.371	-30.25
3152.533	-36.25
3155.693	-38.25
3158.85	-38.25
3162.005	-46.25
3165.157	-42.25
3168.306	-46.25
3171.453	-48.25
3174.597	-45.25
3177.739	-52.25
3180.878	-53.25
3184.014	-61.25
3187.149	-55.25
3190.28	-65.25
3193.409	-58.25
3196.536	-68.25
3199.659	-66.25
3202.781	-71.25
3205.9	-68.25
3209.016	-79.25
3212.13	-78.25
3215.241	-69.25
3218.35	-65.25
3221.456	-78.25
3224.56	-72.25
3227.661	-78.25
3230.76	-81.25
3233.856	-88.25
3236.95	-84.25
3240.041	-82.25
3243.13	-90.25
3246.216	-90.25
3249.3	-88.25
3252.382	-90.25
3255.46	-81.25
3258.537	-53.25
3261.611	-83.25
3264.682	-84.25
3267.751	-84.25
3270.818	-90.25
3273.882	-92.25
3276.943	-88.25
3280.002	-88.25
3283.059	-93.25
3286.113	-90.25
3289.165	-90.25
3292.214	-99.25
3295.261	-93.25
3298.306	-99.25
3301.348	-101.25
3304.387	-95.25
3307.425	-101.25
3310.459	-107.25
3313.492	-107.25
3316.521	-108.25
3319.549	-102.25
3322.574	-112.25
3325.597	-109.25
3328.617	-108.25
3331.635	-111.25
3334.65	-108.25
3337.663	-116.25
3340.674	-107.25
3343.682	-116.25
3346.688	-114.25
3349.691	-114.25
3352.692	-112.25
3355.691	-115.25
3358.687	-113.25
3361.681	-116.25
3364.673	-120.25
3367.662	-115.25
3370.649	-121.25
3373.633	-116.25
3376.615	-120.25
3379.595	-122.25
3382.572	-120.25
3385.547	-124.25
3388.52	-122.25
3391.49	-120.25
3394.458	-127.25
3397.424	-121.25
3400.387	-123.25
3403.348	-121.25
3406.307	-123.25
3409.263	-135.25
3412.217	-125.25
3415.168	-126.25
3418.118	-123.25
3421.065	-126.25
3424.009	-124.25
3426.951	-131.25
3429.891	-131.25
3432.829	-132.25
3435.764	-134.25
3438.697	-129.25
3441.628	-126.25
3444.557	-133.25
3447.483	-136.25
3450.407	-141.25
3453.328	-129.25
3456.247	-134.25
3459.164	-135.25
3462.079	-136.25
3464.991	-139.25
3467.902	-145.25
3470.809	-143.25
3473.715	-139.25
3476.618	-139.25
3479.519	-133.25
3482.418	-144.25
3485.315	-143.25
3488.209	-139.25
3491.101	-139.25
3493.99	-139.25
3496.878	-136.25
3499.763	-143.25
3502.646	-137.25
3505.527	-148.25
3508.405	-149.25
3511.281	-146.25
3514.155	-138.25
3517.027	-144.25
3519.897	-144.25
3522.764	-141.25
3525.629	-150.25
3528.492	-141.25
3531.352	-141.25
3534.211	-148.25
3537.067	-146.25
3539.921	-143.25
3542.773	-149.25
3545.622	-144.25
3548.469	-145.25
3551.315	-137.25
3554.157	-140.25
3556.998	-152.25
3559.837	-145.25
3562.673	-143.25
3565.507	-147.25
3568.339	-147.25
3571.169	-153.25
3573.996	-149.25
3576.822	-143.25
3579.645	-156.25
3582.466	-149.25
3585.285	-149.25
3588.101	-154.25
3590.916	-150.25
3593.728	-149.25
3596.538	-153.25
3599.346	-155.25
3602.152	-156.25
3604.956	-151.25
3607.757	-152.25
3610.556	-153.25
3613.354	-154.25
3616.149	-158.25
3618.942	-151.25
3621.732	-153.25
3624.521	-151.25
3627.307	-157.25
3630.092	-153.25
3632.874	-154.25
3635.654	-151.25
3638.432	-158.25
3641.208	-160.25
3643.982	-153.25
3646.753	-157.25
3649.523	-159.25
3652.29	-160.25
3655.055	-159.25
3657.818	-156.25
3660.579	-160.25
3663.338	-160.25
3666.095	-159.25
3668.849	-161.25
3671.602	-158.25
3674.352	-159.25
3677.101	-158.25
3679.847	-164.25
3682.591	-159.25
3685.333	-157.25
3688.073	-159.25
3690.811	-158.25
3693.547	-159.25
3696.281	-161.25
3699.013	-158.25
3701.742	-162.25
3704.47	-171.25
3707.195	-156.25
3709.919	-158.25
3712.64	-162.25
3715.359	-159.25
3718.076	-156.25
3720.792	-163.25
3723.505	-158.25
3726.216	-162.25
3728.925	-164.25
3731.632	-161.25
3734.336	-159.25
3737.039	-165.25
3739.74	-157.25
3742.439	-155.25
3745.136	-162.25
3747.83	-161.25
3750.523	-158.25
3753.213	-184.25
3755.902	-163.25
3758.589	-163.25
3761.273	-168.25
3763.956	-160.25
3766.636	-162.25
3769.315	-162.25
3771.991	-159.25
3774.665	-158.25
3777.338	-160.25
3780.008	-166.25
3782.677	-164.25
3785.343	-165.25
3788.007	-172.25
3790.67	-161.25
3793.33	-162.25
3795.989	-155.25
3798.645	-164.25
3801.299	-160.25
3803.952	-162.25
3806.602	-164.25
3809.251	-167.25
3811.897	-162.25
3814.542	-164.25
3817.184	-157.25
3819.825	-160.25
3822.463	-160.25
3825.1	-162.25
3827.735	-159.25
3830.367	-167.25
3832.998	-158.25
3835.627	-160.25
3838.253	-166.25
3840.878	-157.25
3843.501	-160.25
3846.122	-161.25
3848.741	-161.25
3851.358	-162.25
3853.973	-163.25
3856.586	-159.25
3859.197	-158.25
3861.806	-164.25
3864.414	-158.25
3867.019	-156.25
3869.622	-156.25
3872.224	-145.25
3874.823	-130.25
3877.421	-118.25
3880.016	-90.25
3882.61	-60.25
3885.202	-48.25
3887.792	-69.25
3890.38	-106.25
3892.966	-134.25
3895.55	-151.25
3898.132	-159.25
3900.713	-158.25
3903.291	-164.25
3905.868	-162.25
3908.442	-159.25
3911.015	-162.25
3913.586	-169.25
3916.155	-165.25
3918.722	-170.25
3921.287	-164.25
3923.85	-170.25
3926.411	-166.25
3928.971	-166.25
3931.528	-163.25
3934.084	-168.25
3936.638	-166.25
3939.19	-168.25
3941.74	-168.25
3944.288	-168.25
3946.834	-165.25
3949.378	-163.25
3951.921	-169.25
3954.462	-165.25
3957	-163.25
3959.537	-161.25
3962.072	-163.25
3964.606	-169.25
3967.137	-162.25
3969.667	-162.25
3972.194	-161.25
3974.72	-167.25
3977.244	-161.25
3979.766	-169.25
3982.286	-162.25
3984.805	-164.25
3987.321	-161.25
3989.836	-160.25
3992.349	-162.25
3994.86	-163.25
3997.369	-162.25
3999.877	-157.25
4002.382	-161.25
4004.886	-159.25
4007.388	-160.25
4009.888	-160.25
4012.386	-164.25
4014.883	-160.25
4017.377	-162.25
4019.87	-156.25
4022.361	-160.25
4024.85	-162.25
4027.338	-156.25
4029.823	-162.25
4032.307	-161.25
4034.789	-157.25
4037.269	-158.25
4039.747	-160.25
4042.224	-158.25
4044.699	-157.25
4047.172	-159.25
4049.643	-158.25
4052.112	-153.25
4054.58	-164.25
4057.046	-158.25
4059.51	-160.25
4061.972	-159.25
4064.432	-156.25
4066.891	-166.25
4069.348	-160.25
4071.803	-159.25
4074.256	-158.25
4076.708	-161.25
4079.158	-162.25
4081.606	-162.25
4084.052	-161.25
4086.497	-160.25
4088.939	-157.25
4091.38	-161.25
4093.819	-160.25
4096.257	-167.25
4098.693	-173.25
4101.127	-170.25
4103.559	-171.25
4105.989	-26.25
4108.418	-8.25
4110.845	-24.25
4113.27	-18.25
4115.694	-16.25
4118.115	-6.25
4120.535	-159.25
4122.954	-161.25
4125.37	-161.25
4127.785	-159.25
4130.198	-159.25
4132.609	-163.25
4135.019	-170.25
4137.427	-168.25
4139.833	-166.25
4142.237	-174.25