File: Data/Raman/2017-08-29 - Alluminum 2/Aug 29 2017 - Aluminum 2/EC 12 5_RamanShift_2.txt
Data from EC 12 5_RamanShift_2.txt Node

Date: Tue Aug 29 12:54:07 IDT 2017
User: aro
Spectrometer: QEPB0276
Trigger mode: 0
Integration Time (sec): 3.000000E1
Scans to average: 1
Electric dark correction enabled: true
Nonlinearity correction enabled: false
Boxcar width: 0
XAxis mode: Raman Shifts
Number of Pixels in Spectrum: 1044
>>>>>Begin Spectral Data<<<<<
160.701	19.62
166.742	39.62
172.777	72.62
178.805	198.62
184.826	497.62
190.841	1007.62
196.849	1618.62
202.85	2091.62
208.845	2281.62
214.833	2340.62
220.815	2360.62
226.789	2413.62
232.758	2486.62
238.719	2563.62
244.674	2619.62
250.623	2658.62
256.565	2702.62
262.5	2707.62
268.429	2753.62
274.351	2811.62
280.267	2854.62
286.176	2895.62
292.079	2933.62
297.975	2985.62
303.865	3038.62
309.748	3008.62
315.625	3066.62
321.495	3085.62
327.359	3100.62
333.217	3100.62
339.068	3151.62
344.912	3125.62
350.751	3165.62
356.583	3185.62
362.408	3196.62
368.227	3259.62
374.04	3343.62
379.847	3472.62
385.647	3532.62
391.44	3462.62
397.228	3381.62
403.009	3414.62
408.784	3592.62
414.553	3991.62
420.315	4457.62
426.071	4454.62
431.821	3986.62
437.565	3588.62
443.302	3442.62
449.033	3396.62
454.758	3342.62
460.477	3302.62
466.189	3231.62
471.896	3214.62
477.596	3175.62
483.29	3168.62
488.978	3167.62
494.66	3133.62
500.335	3060.62
506.005	2896.62
511.668	2725.62
517.325	2572.62
522.977	2444.62
528.622	2343.62
534.261	2281.62
539.894	2274.62
545.521	2239.62
551.141	2197.62
556.756	2178.62
562.365	2170.62
567.968	2166.62
573.565	2176.62
579.155	2147.62
584.74	2152.62
590.319	2164.62
595.892	2120.62
601.459	2143.62
607.02	2150.62
612.575	2107.62
618.124	2094.62
623.667	2070.62
629.204	2061.62
634.735	2088.62
640.261	2195.62
645.781	2335.62
651.294	2378.62
656.802	2279.62
662.304	2106.62
667.8	2025.62
673.29	1966.62
678.775	1946.62
684.254	1958.62
689.726	1948.62
695.193	1914.62
700.655	1911.62
706.11	1913.62
711.56	1890.62
717.004	1903.62
722.442	1889.62
727.874	1900.62
733.301	1906.62
738.722	1918.62
744.137	1951.62
749.547	1999.62
754.951	2025.62
760.349	2015.62
765.741	2001.62
771.128	1984.62
776.509	1989.62
781.885	2015.62
787.254	2060.62
792.618	2068.62
797.977	2060.62
803.33	2054.62
808.677	2037.62
814.019	2008.62
819.355	1990.62
824.686	1994.62
830.011	1976.62
835.33	1963.62
840.644	1971.62
845.952	1950.62
851.255	1916.62
856.552	1915.62
861.844	1902.62
867.13	1866.62
872.41	1884.62
877.686	1847.62
882.955	1831.62
888.219	1828.62
893.478	1806.62
898.731	1803.62
903.979	1778.62
909.221	1767.62
914.458	1759.62
919.69	1786.62
924.916	1787.62
930.136	1790.62
935.351	1802.62
940.561	1791.62
945.766	1781.62
950.965	1775.62
956.158	1786.62
961.347	1748.62
966.529	1742.62
971.707	1717.62
976.879	1717.62
982.046	1686.62
987.208	1697.62
992.364	1704.62
997.515	1713.62
1002.66	1718.62
1007.801	1732.62
1012.936	1786.62
1018.066	1762.62
1023.19	1778.62
1028.309	1771.62
1033.423	1808.62
1038.532	1790.62
1043.636	1809.62
1048.734	1758.62
1053.827	1757.62
1058.915	1731.62
1063.998	1714.62
1069.075	1733.62
1074.147	1721.62
1079.214	1726.62
1084.276	1739.62
1089.333	1750.62
1094.385	1761.62
1099.431	1744.62
1104.472	1747.62
1109.509	1712.62
1114.54	1697.62
1119.565	1669.62
1124.586	1645.62
1129.602	1617.62
1134.613	1653.62
1139.618	1606.62
1144.619	1611.62
1149.614	1622.62
1154.604	1647.62
1159.589	1648.62
1164.57	1622.62
1169.545	1656.62
1174.515	1659.62
1179.48	1647.62
1184.44	1640.62
1189.395	1608.62
1194.345	1616.62
1199.29	1625.62
1204.23	1613.62
1209.165	1618.62
1214.095	1614.62
1219.021	1629.62
1223.941	1646.62
1228.856	1655.62
1233.766	1661.62
1238.672	1649.62
1243.572	1644.62
1248.467	1624.62
1253.358	1592.62
1258.244	1567.62
1263.124	1546.62
1268	1515.62
1272.871	1503.62
1277.737	1490.62
1282.599	1491.62
1287.455	1505.62
1292.306	1489.62
1297.153	1494.62
1301.995	1512.62
1306.832	1511.62
1311.664	1487.62
1316.491	1502.62
1321.314	1489.62
1326.132	1487.62
1330.945	1443.62
1335.753	1427.62
1340.556	1391.62
1345.354	1383.62
1350.148	1330.62
1354.937	1337.62
1359.722	1348.62
1364.501	1334.62
1369.276	1349.62
1374.046	1363.62
1378.811	1384.62
1383.572	1411.62
1388.327	1406.62
1393.079	1386.62
1397.825	1369.62
1402.567	1346.62
1407.304	1319.62
1412.036	1296.62
1416.764	1286.62
1421.487	1296.62
1426.205	1286.62
1430.919	1282.62
1435.628	1293.62
1440.333	1303.62
1445.032	1304.62
1449.727	1316.62
1454.418	1306.62
1459.104	1293.62
1463.785	1250.62
1468.462	1245.62
1473.134	1232.62
1477.802	1212.62
1482.465	1202.62
1487.123	1196.62
1491.777	1216.62
1496.426	1223.62
1501.071	1239.62
1505.711	1247.62
1510.347	1261.62
1514.978	1278.62
1519.604	1291.62
1524.226	1304.62
1528.844	1285.62
1533.457	1284.62
1538.065	1283.62
1542.669	1245.62
1547.269	1241.62
1551.864	1236.62
1556.454	1242.62
1561.041	1234.62
1565.622	1206.62
1570.199	1205.62
1574.772	1182.62
1579.34	1180.62
1583.904	1185.62
1588.464	1174.62
1593.019	1151.62
1597.569	1143.62
1602.115	1132.62
1606.657	1116.62
1611.195	1091.62
1615.728	1077.62
1620.256	1068.62
1624.78	1062.62
1629.3	1052.62
1633.816	1049.62
1638.327	1052.62
1642.834	1059.62
1647.336	1055.62
1651.834	1077.62
1656.328	1060.62
1660.817	1081.62
1665.302	1067.62
1669.783	1054.62
1674.259	1043.62
1678.732	1048.62
1683.199	1032.62
1687.663	1007.62
1692.122	981.62
1696.577	986.62
1701.028	1006.62
1705.474	1004.62
1709.917	1036.62
1714.355	1048.62
1718.788	1037.62
1723.218	1037.62
1727.643	1027.62
1732.064	999.62
1736.481	965.62
1740.893	964.62
1745.301	938.62
1749.705	933.62
1754.105	906.62
1758.501	879.62
1762.893	862.62
1767.28	834.62
1771.663	819.62
1776.042	830.62
1780.417	825.62
1784.787	819.62
1789.154	834.62
1793.516	851.62
1797.874	865.62
1802.228	866.62
1806.578	880.62
1810.924	898.62
1815.266	863.62
1819.603	858.62
1823.937	847.62
1828.266	829.62
1832.591	822.62
1836.913	809.62
1841.23	796.62
1845.543	794.62
1849.852	806.62
1854.156	801.62
1858.457	787.62
1862.754	786.62
1867.047	790.62
1871.335	788.62
1875.62	798.62
1879.9	794.62
1884.177	789.62
1888.449	776.62
1892.718	785.62
1896.982	779.62
1901.243	763.62
1905.499	761.62
1909.752	772.62
1914	761.62
1918.245	782.62
1922.485	781.62
1926.722	787.62
1930.954	801.62
1935.183	803.62
1939.408	815.62
1943.628	827.62
1947.845	805.62
1952.058	800.62
1956.267	805.62
1960.472	789.62
1964.673	757.62
1968.87	748.62
1973.063	742.62
1977.252	721.62
1981.438	723.62
1985.619	706.62
1989.797	697.62
1993.971	685.62
1998.14	679.62
2002.306	673.62
2006.469	677.62
2010.627	674.62
2014.781	666.62
2018.932	656.62
2023.078	653.62
2027.221	634.62
2031.36	619.62
2035.495	615.62
2039.627	606.62
2043.754	595.62
2047.878	596.62
2051.998	580.62
2056.114	603.62
2060.226	588.62
2064.334	604.62
2068.439	607.62
2072.54	612.62
2076.637	625.62
2080.73	625.62
2084.82	623.62
2088.906	622.62
2092.988	636.62
2097.066	639.62
2101.14	624.62
2105.211	615.62
2109.278	618.62
2113.342	619.62
2117.401	609.62
2121.457	596.62
2125.509	581.62
2129.558	588.62
2133.602	576.62
2137.643	576.62
2141.681	566.62
2145.714	571.62
2149.744	560.62
2153.77	562.62
2157.793	557.62
2161.812	551.62
2165.827	543.62
2169.838	530.62
2173.846	524.62
2177.851	529.62
2181.851	505.62
2185.848	513.62
2189.841	509.62
2193.831	498.62
2197.817	503.62
2201.799	496.62
2205.778	501.62
2209.753	485.62
2213.725	503.62
2217.693	501.62
2221.657	496.62
2225.618	510.62
2229.575	502.62
2233.529	484.62
2237.479	487.62
2241.425	488.62
2245.368	480.62
2249.307	466.62
2253.243	468.62
2257.175	460.62
2261.104	460.62
2265.029	454.62
2268.95	451.62
2272.868	454.62
2276.783	440.62
2280.694	443.62
2284.601	439.62
2288.505	428.62
2292.405	429.62
2296.302	425.62
2300.195	419.62
2304.085	424.62
2307.971	427.62
2311.854	411.62
2315.734	410.62
2319.609	398.62
2323.482	408.62
2327.351	416.62
2331.216	445.62
2335.078	444.62
2338.937	429.62
2342.792	397.62
2346.643	393.62
2350.492	386.62
2354.336	397.62
2358.178	394.62
2362.015	398.62
2365.85	394.62
2369.681	397.62
2373.508	397.62
2377.333	396.62
2381.153	393.62
2384.971	395.62
2388.785	400.62
2392.595	396.62
2396.402	390.62
2400.206	384.62
2404.007	382.62
2407.804	381.62
2411.597	371.62
2415.388	374.62
2419.174	364.62
2422.958	374.62
2426.738	371.62
2430.515	372.62
2434.289	366.62
2438.059	365.62
2441.825	356.62
2445.589	360.62
2449.349	341.62
2453.106	347.62
2456.859	343.62
2460.61	338.62
2464.356	329.62
2468.1	328.62
2471.84	322.62
2475.577	327.62
2479.311	330.62
2483.041	332.62
2486.768	331.62
2490.492	321.62
2494.213	327.62
2497.93	322.62
2501.644	320.62
2505.355	316.62
2509.062	323.62
2512.766	317.62
2516.467	320.62
2520.165	312.62
2523.859	313.62
2527.551	311.62
2531.239	311.62
2534.923	308.62
2538.605	312.62
2542.283	308.62
2545.958	318.62
2549.63	312.62
2553.299	312.62
2556.964	310.62
2560.626	313.62
2564.285	306.62
2567.941	310.62
2571.594	304.62
2575.243	301.62
2578.89	295.62
2582.533	308.62
2586.173	302.62
2589.809	292.62
2593.443	297.62
2597.073	293.62
2600.701	289.62
2604.325	277.62
2607.946	278.62
2611.564	278.62
2615.178	284.62
2618.79	270.62
2622.398	267.62
2626.004	267.62
2629.606	258.62
2633.205	257.62
2636.801	257.62
2640.394	258.62
2643.983	241.62
2647.57	251.62
2651.153	238.62
2654.734	232.62
2658.311	241.62
2661.885	225.62
2665.456	227.62
2669.025	217.62
2672.589	213.62
2676.151	218.62
2679.71	218.62
2683.266	215.62
2686.819	220.62
2690.368	210.62
2693.915	198.62
2697.458	187.62
2700.999	188.62
2704.536	193.62
2708.071	182.62
2711.602	168.62
2715.13	172.62
2718.656	167.62
2722.178	172.62
2725.697	158.62
2729.214	162.62
2732.727	164.62
2736.237	165.62
2739.744	160.62
2743.249	163.62
2746.75	166.62
2750.248	163.62
2753.743	172.62
2757.236	179.62
2760.725	165.62
2764.211	169.62
2767.695	181.62
2771.175	170.62
2774.652	167.62
2778.127	174.62
2781.598	164.62
2785.067	156.62
2788.532	161.62
2791.995	151.62
2795.455	152.62
2798.911	154.62
2802.365	151.62
2805.816	161.62
2809.264	150.62
2812.709	146.62
2816.151	151.62
2819.59	146.62
2823.026	145.62
2826.46	154.62
2829.89	147.62
2833.318	148.62
2836.742	143.62
2840.164	136.62
2843.583	144.62
2846.999	145.62
2850.412	137.62
2853.822	144.62
2857.229	146.62
2860.634	148.62
2864.035	147.62
2867.434	143.62
2870.83	146.62
2874.223	133.62
2877.613	131.62
2881	132.62
2884.385	126.62
2887.766	123.62
2891.145	122.62
2894.521	125.62
2897.894	113.62
2901.264	112.62
2904.631	111.62
2907.996	105.62
2911.358	110.62
2914.717	109.62
2918.073	96.62
2921.426	102.62
2924.777	97.62
2928.124	103.62
2931.469	102.62
2934.811	88.62
2938.15	95.62
2941.487	93.62
2944.821	84.62
2948.152	74.62
2951.48	82.62
2954.805	87.62
2958.128	74.62
2961.447	79.62
2964.765	65.62
2968.079	68.62
2971.39	64.62
2974.699	70.62
2978.005	77.62
2981.308	69.62
2984.609	63.62
2987.907	69.62
2991.202	58.62
2994.494	69.62
2997.784	66.62
3001.07	68.62
3004.355	70.62
3007.636	60.62
3010.915	60.62
3014.191	65.62
3017.464	54.62
3020.734	54.62
3024.002	44.62
3027.267	47.62
3030.53	45.62
3033.789	45.62
3037.046	39.62
3040.301	44.62
3043.552	35.62
3046.801	35.62
3050.048	32.62
3053.291	29.62
3056.532	29.62
3059.771	38.62
3063.006	28.62
3066.239	32.62
3069.469	26.62
3072.697	25.62
3075.922	23.62
3079.144	29.62
3082.364	21.62
3085.581	27.62
3088.795	18.62
3092.007	15.62
3095.216	21.62
3098.423	29.62
3101.627	25.62
3104.828	22.62
3108.026	20.62
3111.222	16.62
3114.416	17.62
3117.607	19.62
3120.795	22.62
3123.98	11.62
3127.163	14.62
3130.344	17.62
3133.521	4.62
3136.696	13.62
3139.869	14.62
3143.039	7.62
3146.206	9.62
3149.371	7.62
3152.533	6.62
3155.693	6.62
3158.85	5.62
3162.005	0.62
3165.157	3.62
3168.306	1.62
3171.453	-0.38
3174.597	-3.38
3177.739	-2.38
3180.878	-8.38
3184.014	-14.38
3187.149	-5.38
3190.28	-8.38
3193.409	-6.38
3196.536	-19.38
3199.659	-12.38
3202.781	-15.38
3205.9	-13.38
3209.016	-23.38
3212.13	-18.38
3215.241	-23.38
3218.35	-19.38
3221.456	-24.38
3224.56	-19.38
3227.661	-24.38
3230.76	-26.38
3233.856	-35.38
3236.95	-26.38
3240.041	-22.38
3243.13	-30.38
3246.216	-26.38
3249.3	-25.38
3252.382	-25.38
3255.46	-21.38
3258.537	-3.38
3261.611	-28.38
3264.682	-23.38
3267.751	-26.38
3270.818	-31.38
3273.882	-28.38
3276.943	-30.38
3280.002	-27.38
3283.059	-36.38
3286.113	-27.38
3289.165	-31.38
3292.214	-31.38
3295.261	-30.38
3298.306	-34.38
3301.348	-38.38
3304.387	-39.38
3307.425	-37.38
3310.459	-32.38
3313.492	-39.38
3316.521	-42.38
3319.549	-39.38
3322.574	-44.38
3325.597	-39.38
3328.617	-41.38
3331.635	-39.38
3334.65	-44.38
3337.663	-50.38
3340.674	-37.38
3343.682	-43.38
3346.688	-45.38
3349.691	-45.38
3352.692	-41.38
3355.691	-48.38
3358.687	-46.38
3361.681	-46.38
3364.673	-47.38
3367.662	-45.38
3370.649	-46.38
3373.633	-41.38
3376.615	-47.38
3379.595	-51.38
3382.572	-47.38
3385.547	-48.38
3388.52	-44.38
3391.49	-50.38
3394.458	-49.38
3397.424	-42.38
3400.387	-44.38
3403.348	-49.38
3406.307	-47.38
3409.263	-55.38
3412.217	-50.38
3415.168	-48.38
3418.118	-47.38
3421.065	-52.38
3424.009	-50.38
3426.951	-55.38
3429.891	-52.38
3432.829	-52.38
3435.764	-59.38
3438.697	-51.38
3441.628	-54.38
3444.557	-52.38
3447.483	-57.38
3450.407	-62.38
3453.328	-54.38
3456.247	-61.38
3459.164	-60.38
3462.079	-65.38
3464.991	-61.38
3467.902	-64.38
3470.809	-70.38
3473.715	-60.38
3476.618	-62.38
3479.519	-58.38
3482.418	-60.38
3485.315	-70.38
3488.209	-68.38
3491.101	-64.38
3493.99	-60.38
3496.878	-63.38
3499.763	-67.38
3502.646	-63.38
3505.527	-66.38
3508.405	-68.38
3511.281	-64.38
3514.155	-61.38
3517.027	-66.38
3519.897	-66.38
3522.764	-59.38
3525.629	-69.38
3528.492	-62.38
3531.352	-66.38
3534.211	-68.38
3537.067	-68.38
3539.921	-62.38
3542.773	-71.38
3545.622	-63.38
3548.469	-69.38
3551.315	-64.38
3554.157	-63.38
3556.998	-70.38
3559.837	-68.38
3562.673	-65.38
3565.507	-71.38
3568.339	-71.38
3571.169	-73.38
3573.996	-73.38
3576.822	-71.38
3579.645	-75.38
3582.466	-67.38
3585.285	-70.38
3588.101	-68.38
3590.916	-73.38
3593.728	-68.38
3596.538	-75.38
3599.346	-78.38
3602.152	-72.38
3604.956	-73.38
3607.757	-75.38
3610.556	-74.38
3613.354	-70.38
3616.149	-76.38
3618.942	-77.38
3621.732	-70.38
3624.521	-73.38
3627.307	-75.38
3630.092	-73.38
3632.874	-73.38
3635.654	-70.38
3638.432	-74.38
3641.208	-77.38
3643.982	-69.38
3646.753	-77.38
3649.523	-71.38
3652.29	-73.38
3655.055	-77.38
3657.818	-77.38
3660.579	-72.38
3663.338	-75.38
3666.095	-75.38
3668.849	-74.38
3671.602	-73.38
3674.352	-74.38
3677.101	-69.38
3679.847	-76.38
3682.591	-73.38
3685.333	-72.38
3688.073	-73.38
3690.811	-78.38
3693.547	-74.38
3696.281	-73.38
3699.013	-71.38
3701.742	-71.38
3704.47	-77.38
3707.195	-71.38
3709.919	-75.38
3712.64	-78.38
3715.359	-73.38
3718.076	-68.38
3720.792	-75.38
3723.505	-72.38
3726.216	-80.38
3728.925	-77.38
3731.632	-75.38
3734.336	-76.38
3737.039	-76.38
3739.74	-75.38
3742.439	-71.38
3745.136	-79.38
3747.83	-78.38
3750.523	-70.38
3753.213	-95.38
3755.902	-78.38
3758.589	-71.38
3761.273	-80.38
3763.956	-74.38
3766.636	-78.38
3769.315	-77.38
3771.991	-76.38
3774.665	-70.38
3777.338	-74.38
3780.008	-88.38
3782.677	-75.38
3785.343	-80.38
3788.007	-80.38
3790.67	-76.38
3793.33	-76.38
3795.989	-72.38
3798.645	-76.38
3801.299	-74.38
3803.952	-78.38
3806.602	-80.38
3809.251	-79.38
3811.897	-83.38
3814.542	-77.38
3817.184	-77.38
3819.825	-75.38
3822.463	-78.38
3825.1	-82.38
3827.735	-78.38
3830.367	-80.38
3832.998	-77.38
3835.627	-75.38
3838.253	-79.38
3840.878	-78.38
3843.501	-74.38
3846.122	-81.38
3848.741	-79.38
3851.358	-77.38
3853.973	-72.38
3856.586	-78.38
3859.197	-75.38
3861.806	-81.38
3864.414	-75.38
3867.019	-77.38
3869.622	-77.38
3872.224	-65.38
3874.823	-51.38
3877.421	-38.38
3880.016	-21.38
3882.61	-1.38
3885.202	3.62
3887.792	-3.38
3890.38	-31.38
3892.966	-58.38
3895.55	-75.38
3898.132	-77.38
3900.713	-81.38
3903.291	-78.38
3905.868	-85.38
3908.442	-83.38
3911.015	-81.38
3913.586	-84.38
3916.155	-83.38
3918.722	-84.38
3921.287	-82.38
3923.85	-84.38
3926.411	-85.38
3928.971	-85.38
3931.528	-84.38
3934.084	-84.38
3936.638	-87.38
3939.19	-87.38
3941.74	-84.38
3944.288	-86.38
3946.834	-83.38
3949.378	-88.38
3951.921	-81.38
3954.462	-84.38
3957	-82.38
3959.537	-79.38
3962.072	-75.38
3964.606	-82.38
3967.137	-81.38
3969.667	-80.38
3972.194	-83.38
3974.72	-80.38
3977.244	-80.38
3979.766	-86.38
3982.286	-79.38
3984.805	-81.38
3987.321	-74.38
3989.836	-80.38
3992.349	-81.38
3994.86	-82.38
3997.369	-81.38
3999.877	-73.38
4002.382	-78.38
4004.886	-79.38
4007.388	-72.38
4009.888	-76.38
4012.386	-81.38
4014.883	-74.38
4017.377	-78.38
4019.87	-77.38
4022.361	-79.38
4024.85	-82.38
4027.338	-71.38
4029.823	-78.38
4032.307	-82.38
4034.789	-77.38
4037.269	-77.38
4039.747	-78.38
4042.224	-77.38
4044.699	-79.38
4047.172	-73.38
4049.643	-76.38
4052.112	-69.38
4054.58	-79.38
4057.046	-78.38
4059.51	-83.38
4061.972	-78.38
4064.432	-71.38
4066.891	-84.38
4069.348	-78.38
4071.803	-81.38
4074.256	-80.38
4076.708	-79.38
4079.158	-78.38
4081.606	-80.38
4084.052	-80.38
4086.497	-77.38
4088.939	-78.38
4091.38	-82.38
4093.819	-85.38
4096.257	-83.38
4098.693	-84.38
4101.127	-82.38
4103.559	-87.38
4105.989	23.62
4108.418	22.62
4110.845	20.62
4113.27	9.62
4115.694	16.62
4118.115	20.62
4120.535	-77.38
4122.954	-78.38
4125.37	-81.38
4127.785	-78.38
4130.198	-78.38
4132.609	-82.38
4135.019	-82.38
4137.427	-81.38
4139.833	-79.38
4142.237	-87.38