File: Data/Raman/2017-08-29 - Alluminum 2/Aug 29 2017 - Aluminum 2/EC 110 5_RamanShift_3.txt
Data from EC 110 5_RamanShift_3.txt Node

Date: Tue Aug 29 12:52:37 IDT 2017
User: aro
Spectrometer: QEPB0276
Trigger mode: 0
Integration Time (sec): 3.000000E1
Scans to average: 1
Electric dark correction enabled: true
Nonlinearity correction enabled: false
Boxcar width: 0
XAxis mode: Raman Shifts
Number of Pixels in Spectrum: 1044
>>>>>Begin Spectral Data<<<<<
160.701	23.25
166.742	40.25
172.777	73.25
178.805	170.25
184.826	408.25
190.841	831.25
196.849	1320.25
202.85	1676.25
208.845	1804.25
214.833	1849.25
220.815	1977.25
226.789	1914.25
232.758	1938.25
238.719	1981.25
244.674	2035.25
250.623	2076.25
256.565	2109.25
262.5	2096.25
268.429	2167.25
274.351	2205.25
280.267	2252.25
286.176	2299.25
292.079	2336.25
297.975	2378.25
303.865	2411.25
309.748	2418.25
315.625	2445.25
321.495	2469.25
327.359	2490.25
333.217	2510.25
339.068	2532.25
344.912	2537.25
350.751	2572.25
356.583	2583.25
362.408	2607.25
368.227	2690.25
374.04	2807.25
379.847	2947.25
385.647	3034.25
391.44	2947.25
397.228	2830.25
403.009	2868.25
408.784	3091.25
414.553	3576.25
420.315	4167.25
426.071	4196.25
431.821	3576.25
437.565	3083.25
443.302	2886.25
449.033	2829.25
454.758	2788.25
460.477	2720.25
466.189	2677.25
471.896	2617.25
477.596	2585.25
483.29	2593.25
488.978	2597.25
494.66	2523.25
500.335	2418.25
506.005	2240.25
511.668	2035.25
517.325	1849.25
522.977	1683.25
528.622	1598.25
534.261	1520.25
539.894	1462.25
545.521	1428.25
551.141	1389.25
556.756	1380.25
562.365	1359.25
567.968	1347.25
573.565	1349.25
579.155	1364.25
584.74	1341.25
590.319	1350.25
595.892	1324.25
601.459	1332.25
607.02	1348.25
612.575	1320.25
618.124	1326.25
623.667	1280.25
629.204	1264.25
634.735	1317.25
640.261	1442.25
645.781	1617.25
651.294	1689.25
656.802	1560.25
662.304	1316.25
667.8	1205.25
673.29	1190.25
678.775	1152.25
684.254	1149.25
689.726	1134.25
695.193	1125.25
700.655	1113.25
706.11	1123.25
711.56	1112.25
717.004	1107.25
722.442	1101.25
727.874	1119.25
733.301	1137.25
738.722	1131.25
744.137	1172.25
749.547	1236.25
754.951	1264.25
760.349	1254.25
765.741	1210.25
771.128	1207.25
776.509	1207.25
781.885	1257.25
787.254	1270.25
792.618	1294.25
797.977	1303.25
803.33	1269.25
808.677	1285.25
814.019	1282.25
819.355	1250.25
824.686	1238.25
830.011	1232.25
835.33	1207.25
840.644	1199.25
845.952	1179.25
851.255	1166.25
856.552	1131.25
861.844	1112.25
867.13	1090.25
872.41	1081.25
877.686	1051.25
882.955	1049.25
888.219	1032.25
893.478	1021.25
898.731	1026.25
903.979	1022.25
909.221	1003.25
914.458	1003.25
919.69	1006.25
924.916	997.25
930.136	1006.25
935.351	1013.25
940.561	1001.25
945.766	1003.25
950.965	1003.25
956.158	1005.25
961.347	984.25
966.529	993.25
971.707	972.25
976.879	963.25
982.046	960.25
987.208	950.25
992.364	971.25
997.515	971.25
1002.66	979.25
1007.801	978.25
1012.936	1003.25
1018.066	1015.25
1023.19	1021.25
1028.309	1016.25
1033.423	1036.25
1038.532	1046.25
1043.636	1050.25
1048.734	1029.25
1053.827	1029.25
1058.915	1024.25
1063.998	1016.25
1069.075	1023.25
1074.147	1015.25
1079.214	1027.25
1084.276	1011.25
1089.333	1019.25
1094.385	1005.25
1099.431	1018.25
1104.472	1006.25
1109.509	987.25
1114.54	969.25
1119.565	954.25
1124.586	952.25
1129.602	935.25
1134.613	942.25
1139.618	948.25
1144.619	929.25
1149.614	939.25
1154.604	932.25
1159.589	959.25
1164.57	950.25
1169.545	982.25
1174.515	967.25
1179.48	970.25
1184.44	955.25
1189.395	951.25
1194.345	961.25
1199.29	947.25
1204.23	938.25
1209.165	943.25
1214.095	950.25
1219.021	969.25
1223.941	967.25
1228.856	990.25
1233.766	977.25
1238.672	956.25
1243.572	955.25
1248.467	952.25
1253.358	939.25
1258.244	907.25
1263.124	902.25
1268	879.25
1272.871	880.25
1277.737	871.25
1282.599	863.25
1287.455	849.25
1292.306	872.25
1297.153	870.25
1301.995	881.25
1306.832	874.25
1311.664	874.25
1316.491	864.25
1321.314	864.25
1326.132	869.25
1330.945	846.25
1335.753	832.25
1340.556	817.25
1345.354	812.25
1350.148	808.25
1354.937	794.25
1359.722	796.25
1364.501	811.25
1369.276	814.25
1374.046	821.25
1378.811	822.25
1383.572	837.25
1388.327	834.25
1393.079	825.25
1397.825	821.25
1402.567	807.25
1407.304	794.25
1412.036	768.25
1416.764	770.25
1421.487	758.25
1426.205	769.25
1430.919	778.25
1435.628	780.25
1440.333	784.25
1445.032	776.25
1449.727	799.25
1454.418	774.25
1459.104	773.25
1463.785	751.25
1468.462	761.25
1473.134	757.25
1477.802	750.25
1482.465	753.25
1487.123	746.25
1491.777	748.25
1496.426	753.25
1501.071	771.25
1505.711	776.25
1510.347	794.25
1514.978	809.25
1519.604	818.25
1524.226	836.25
1528.844	824.25
1533.457	800.25
1538.065	807.25
1542.669	794.25
1547.269	776.25
1551.864	777.25
1556.454	793.25
1561.041	804.25
1565.622	751.25
1570.199	739.25
1574.772	744.25
1579.34	738.25
1583.904	740.25
1588.464	727.25
1593.019	724.25
1597.569	710.25
1602.115	692.25
1606.657	691.25
1611.195	685.25
1615.728	673.25
1620.256	672.25
1624.78	660.25
1629.3	657.25
1633.816	665.25
1638.327	655.25
1642.834	675.25
1647.336	677.25
1651.834	685.25
1656.328	674.25
1660.817	684.25
1665.302	670.25
1669.783	688.25
1674.259	680.25
1678.732	666.25
1683.199	672.25
1687.663	665.25
1692.122	641.25
1696.577	651.25
1701.028	658.25
1705.474	663.25
1709.917	683.25
1714.355	684.25
1718.788	675.25
1723.218	685.25
1727.643	669.25
1732.064	652.25
1736.481	644.25
1740.893	631.25
1745.301	613.25
1749.705	597.25
1754.105	590.25
1758.501	567.25
1762.893	559.25
1767.28	562.25
1771.663	547.25
1776.042	547.25
1780.417	545.25
1784.787	541.25
1789.154	567.25
1793.516	557.25
1797.874	577.25
1802.228	591.25
1806.578	598.25
1810.924	597.25
1815.266	588.25
1819.603	560.25
1823.937	563.25
1828.266	538.25
1832.591	539.25
1836.913	534.25
1841.23	521.25
1845.543	524.25
1849.852	527.25
1854.156	524.25
1858.457	521.25
1862.754	521.25
1867.047	526.25
1871.335	525.25
1875.62	523.25
1879.9	527.25
1884.177	533.25
1888.449	515.25
1892.718	522.25
1896.982	517.25
1901.243	511.25
1905.499	508.25
1909.752	517.25
1914	514.25
1918.245	532.25
1922.485	546.25
1926.722	551.25
1930.954	538.25
1935.183	545.25
1939.408	557.25
1943.628	572.25
1947.845	559.25
1952.058	566.25
1956.267	547.25
1960.472	533.25
1964.673	524.25
1968.87	508.25
1973.063	505.25
1977.252	487.25
1981.438	485.25
1985.619	472.25
1989.797	462.25
1993.971	466.25
1998.14	469.25
2002.306	454.25
2006.469	456.25
2010.627	451.25
2014.781	452.25
2018.932	445.25
2023.078	436.25
2027.221	439.25
2031.36	424.25
2035.495	422.25
2039.627	409.25
2043.754	407.25
2047.878	416.25
2051.998	411.25
2056.114	404.25
2060.226	413.25
2064.334	408.25
2068.439	413.25
2072.54	416.25
2076.637	422.25
2080.73	433.25
2084.82	428.25
2088.906	435.25
2092.988	439.25
2097.066	450.25
2101.14	441.25
2105.211	439.25
2109.278	428.25
2113.342	427.25
2117.401	423.25
2121.457	419.25
2125.509	408.25
2129.558	416.25
2133.602	413.25
2137.643	403.25
2141.681	395.25
2145.714	395.25
2149.744	389.25
2153.77	384.25
2157.793	379.25
2161.812	378.25
2165.827	376.25
2169.838	363.25
2173.846	364.25
2177.851	370.25
2181.851	360.25
2185.848	346.25
2189.841	347.25
2193.831	351.25
2197.817	346.25
2201.799	339.25
2205.778	338.25
2209.753	341.25
2213.725	344.25
2217.693	340.25
2221.657	340.25
2225.618	346.25
2229.575	348.25
2233.529	350.25
2237.479	342.25
2241.425	339.25
2245.368	336.25
2249.307	324.25
2253.243	318.25
2257.175	316.25
2261.104	325.25
2265.029	317.25
2268.95	314.25
2272.868	316.25
2276.783	303.25
2280.694	304.25
2284.601	302.25
2288.505	301.25
2292.405	301.25
2296.302	301.25
2300.195	291.25
2304.085	293.25
2307.971	292.25
2311.854	284.25
2315.734	281.25
2319.609	280.25
2323.482	282.25
2327.351	294.25
2331.216	327.25
2335.078	350.25
2338.937	301.25
2342.792	265.25
2346.643	267.25
2350.492	270.25
2354.336	264.25
2358.178	268.25
2362.015	267.25
2365.85	272.25
2369.681	275.25
2373.508	273.25
2377.333	266.25
2381.153	270.25
2384.971	267.25
2388.785	262.25
2392.595	262.25
2396.402	261.25
2400.206	261.25
2404.007	266.25
2407.804	262.25
2411.597	262.25
2415.388	249.25
2419.174	252.25
2422.958	253.25
2426.738	249.25
2430.515	251.25
2434.289	247.25
2438.059	242.25
2441.825	246.25
2445.589	238.25
2449.349	232.25
2453.106	230.25
2456.859	238.25
2460.61	236.25
2464.356	223.25
2468.1	232.25
2471.84	220.25
2475.577	231.25
2479.311	223.25
2483.041	220.25
2486.768	219.25
2490.492	217.25
2494.213	219.25
2497.93	219.25
2501.644	215.25
2505.355	215.25
2509.062	218.25
2512.766	216.25
2516.467	211.25
2520.165	222.25
2523.859	210.25
2527.551	211.25
2531.239	216.25
2534.923	216.25
2538.605	211.25
2542.283	209.25
2545.958	207.25
2549.63	213.25
2553.299	211.25
2556.964	217.25
2560.626	214.25
2564.285	211.25
2567.941	215.25
2571.594	208.25
2575.243	204.25
2578.89	212.25
2582.533	204.25
2586.173	207.25
2589.809	210.25
2593.443	205.25
2597.073	193.25
2600.701	201.25
2604.325	203.25
2607.946	196.25
2611.564	190.25
2615.178	189.25
2618.79	187.25
2622.398	189.25
2626.004	182.25
2629.606	183.25
2633.205	176.25
2636.801	183.25
2640.394	178.25
2643.983	170.25
2647.57	167.25
2651.153	156.25
2654.734	165.25
2658.311	159.25
2661.885	149.25
2665.456	165.25
2669.025	150.25
2672.589	149.25
2676.151	143.25
2679.71	141.25
2683.266	151.25
2686.819	137.25
2690.368	139.25
2693.915	133.25
2697.458	126.25
2700.999	123.25
2704.536	122.25
2708.071	121.25
2711.602	112.25
2715.13	113.25
2718.656	116.25
2722.178	117.25
2725.697	101.25
2729.214	113.25
2732.727	114.25
2736.237	118.25
2739.744	109.25
2743.249	106.25
2746.75	109.25
2750.248	118.25
2753.743	111.25
2757.236	116.25
2760.725	113.25
2764.211	118.25
2767.695	120.25
2771.175	111.25
2774.652	111.25
2778.127	117.25
2781.598	103.25
2785.067	106.25
2788.532	115.25
2791.995	100.25
2795.455	102.25
2798.911	104.25
2802.365	95.25
2805.816	110.25
2809.264	98.25
2812.709	95.25
2816.151	104.25
2819.59	101.25
2823.026	101.25
2826.46	104.25
2829.89	95.25
2833.318	95.25
2836.742	96.25
2840.164	93.25
2843.583	94.25
2846.999	102.25
2850.412	93.25
2853.822	99.25
2857.229	104.25
2860.634	89.25
2864.035	90.25
2867.434	94.25
2870.83	97.25
2874.223	96.25
2877.613	84.25
2881	84.25
2884.385	87.25
2887.766	77.25
2891.145	77.25
2894.521	77.25
2897.894	68.25
2901.264	69.25
2904.631	62.25
2907.996	58.25
2911.358	60.25
2914.717	67.25
2918.073	58.25
2921.426	58.25
2924.777	57.25
2928.124	51.25
2931.469	55.25
2934.811	54.25
2938.15	48.25
2941.487	53.25
2944.821	50.25
2948.152	38.25
2951.48	41.25
2954.805	43.25
2958.128	36.25
2961.447	41.25
2964.765	38.25
2968.079	38.25
2971.39	37.25
2974.699	38.25
2978.005	41.25
2981.308	36.25
2984.609	32.25
2987.907	45.25
2991.202	34.25
2994.494	42.25
2997.784	39.25
3001.07	40.25
3004.355	37.25
3007.636	37.25
3010.915	33.25
3014.191	29.25
3017.464	31.25
3020.734	33.25
3024.002	27.25
3027.267	33.25
3030.53	24.25
3033.789	22.25
3037.046	27.25
3040.301	14.25
3043.552	7.25
3046.801	10.25
3050.048	18.25
3053.291	8.25
3056.532	11.25
3059.771	18.25
3063.006	8.25
3066.239	7.25
3069.469	5.25
3072.697	4.25
3075.922	9.25
3079.144	9.25
3082.364	6.25
3085.581	6.25
3088.795	2.25
3092.007	0.25
3095.216	2.25
3098.423	1.25
3101.627	0.25
3104.828	4.25
3108.026	4.25
3111.222	-1.75
3114.416	6.25
3117.607	-1.75
3120.795	1.25
3123.98	-3.75
3127.163	2.25
3130.344	2.25
3133.521	-1.75
3136.696	1.25
3139.869	1.25
3143.039	-0.75
3146.206	-9.75
3149.371	-7.75
3152.533	-5.75
3155.693	-6.75
3158.85	-12.75
3162.005	-4.75
3165.157	-9.75
3168.306	-10.75
3171.453	-8.75
3174.597	-14.75
3177.739	-10.75
3180.878	-16.75
3184.014	-18.75
3187.149	-18.75
3190.28	-18.75
3193.409	-16.75
3196.536	-27.75
3199.659	-19.75
3202.781	-20.75
3205.9	-18.75
3209.016	-27.75
3212.13	-29.75
3215.241	-26.75
3218.35	-24.75
3221.456	-25.75
3224.56	-28.75
3227.661	-33.75
3230.76	-26.75
3233.856	-30.75
3236.95	-30.75
3240.041	-31.75
3243.13	-32.75
3246.216	-31.75
3249.3	-33.75
3252.382	-27.75
3255.46	-24.75
3258.537	-1.75
3261.611	-34.75
3264.682	-28.75
3267.751	-27.75
3270.818	-35.75
3273.882	-32.75
3276.943	-31.75
3280.002	-28.75
3283.059	-33.75
3286.113	-32.75
3289.165	-35.75
3292.214	-32.75
3295.261	-29.75
3298.306	-33.75
3301.348	-35.75
3304.387	-41.75
3307.425	-35.75
3310.459	-37.75
3313.492	-41.75
3316.521	-44.75
3319.549	-43.75
3322.574	-44.75
3325.597	-43.75
3328.617	-42.75
3331.635	-43.75
3334.65	-43.75
3337.663	-51.75
3340.674	-41.75
3343.682	-44.75
3346.688	-43.75
3349.691	-43.75
3352.692	-46.75
3355.691	-45.75
3358.687	-44.75
3361.681	-48.75
3364.673	-44.75
3367.662	-47.75
3370.649	-50.75
3373.633	-44.75
3376.615	-45.75
3379.595	-47.75
3382.572	-48.75
3385.547	-41.75
3388.52	-48.75
3391.49	-48.75
3394.458	-50.75
3397.424	-46.75
3400.387	-49.75
3403.348	-49.75
3406.307	-45.75
3409.263	-54.75
3412.217	-44.75
3415.168	-52.75
3418.118	-53.75
3421.065	-53.75
3424.009	-51.75
3426.951	-53.75
3429.891	-53.75
3432.829	-50.75
3435.764	-54.75
3438.697	-55.75
3441.628	-57.75
3444.557	-48.75
3447.483	-59.75
3450.407	-57.75
3453.328	-51.75
3456.247	-58.75
3459.164	-53.75
3462.079	-60.75
3464.991	-56.75
3467.902	-60.75
3470.809	-62.75
3473.715	-58.75
3476.618	-62.75
3479.519	-52.75
3482.418	-63.75
3485.315	-62.75
3488.209	-64.75
3491.101	-55.75
3493.99	-61.75
3496.878	-57.75
3499.763	-64.75
3502.646	-56.75
3505.527	-69.75
3508.405	-58.75
3511.281	-65.75
3514.155	-59.75
3517.027	-63.75
3519.897	-61.75
3522.764	-62.75
3525.629	-62.75
3528.492	-63.75
3531.352	-64.75
3534.211	-61.75
3537.067	-63.75
3539.921	-63.75
3542.773	-65.75
3545.622	-60.75
3548.469	-62.75
3551.315	-61.75
3554.157	-56.75
3556.998	-62.75
3559.837	-61.75
3562.673	-61.75
3565.507	-61.75
3568.339	-56.75
3571.169	-61.75
3573.996	-67.75
3576.822	-57.75
3579.645	-65.75
3582.466	-65.75
3585.285	-66.75
3588.101	-72.75
3590.916	-72.75
3593.728	-59.75
3596.538	-71.75
3599.346	-66.75
3602.152	-69.75
3604.956	-64.75
3607.757	-66.75
3610.556	-63.75
3613.354	-67.75
3616.149	-69.75
3618.942	-64.75
3621.732	-68.75
3624.521	-68.75
3627.307	-73.75
3630.092	-69.75
3632.874	-71.75
3635.654	-64.75
3638.432	-68.75
3641.208	-71.75
3643.982	-66.75
3646.753	-68.75
3649.523	-63.75
3652.29	-70.75
3655.055	-66.75
3657.818	-71.75
3660.579	-68.75
3663.338	-69.75
3666.095	-70.75
3668.849	-70.75
3671.602	-64.75
3674.352	-75.75
3677.101	-67.75
3679.847	-75.75
3682.591	-67.75
3685.333	-68.75
3688.073	-73.75
3690.811	-69.75
3693.547	-71.75
3696.281	-64.75
3699.013	-67.75
3701.742	-73.75
3704.47	-72.75
3707.195	-69.75
3709.919	-64.75
3712.64	-74.75
3715.359	-66.75
3718.076	-67.75
3720.792	-71.75
3723.505	-64.75
3726.216	-71.75
3728.925	-68.75
3731.632	-74.75
3734.336	-68.75
3737.039	-72.75
3739.74	-72.75
3742.439	-60.75
3745.136	-69.75
3747.83	-68.75
3750.523	-71.75
3753.213	-92.75
3755.902	-73.75
3758.589	-70.75
3761.273	-72.75
3763.956	-75.75
3766.636	-68.75
3769.315	-72.75
3771.991	-70.75
3774.665	-71.75
3777.338	-70.75
3780.008	-84.75
3782.677	-71.75
3785.343	-76.75
3788.007	-79.75
3790.67	-73.75
3793.33	-72.75
3795.989	-64.75
3798.645	-78.75
3801.299	-73.75
3803.952	-70.75
3806.602	-75.75
3809.251	-74.75
3811.897	-70.75
3814.542	-77.75
3817.184	-71.75
3819.825	-77.75
3822.463	-74.75
3825.1	-77.75
3827.735	-72.75
3830.367	-80.75
3832.998	-67.75
3835.627	-64.75
3838.253	-74.75
3840.878	-70.75
3843.501	-69.75
3846.122	-75.75
3848.741	-76.75
3851.358	-78.75
3853.973	-71.75
3856.586	-73.75
3859.197	-70.75
3861.806	-77.75
3864.414	-75.75
3867.019	-68.75
3869.622	-67.75
3872.224	-57.75
3874.823	-42.75
3877.421	-26.75
3880.016	-2.75
3882.61	29.25
3885.202	44.25
3887.792	17.25
3890.38	-14.75
3892.966	-52.75
3895.55	-60.75
3898.132	-70.75
3900.713	-74.75
3903.291	-82.75
3905.868	-77.75
3908.442	-73.75
3911.015	-72.75
3913.586	-77.75
3916.155	-77.75
3918.722	-77.75
3921.287	-76.75
3923.85	-81.75
3926.411	-73.75
3928.971	-75.75
3931.528	-71.75
3934.084	-80.75
3936.638	-78.75
3939.19	-78.75
3941.74	-78.75
3944.288	-74.75
3946.834	-71.75
3949.378	-81.75
3951.921	-72.75
3954.462	-79.75
3957	-75.75
3959.537	-72.75
3962.072	-70.75
3964.606	-80.75
3967.137	-74.75
3969.667	-77.75
3972.194	-76.75
3974.72	-75.75
3977.244	-75.75
3979.766	-81.75
3982.286	-73.75
3984.805	-78.75
3987.321	-73.75
3989.836	-78.75
3992.349	-74.75
3994.86	-75.75
3997.369	-70.75
3999.877	-72.75
4002.382	-74.75
4004.886	-70.75
4007.388	-72.75
4009.888	-71.75
4012.386	-73.75
4014.883	-76.75
4017.377	-71.75
4019.87	-71.75
4022.361	-75.75
4024.85	-76.75
4027.338	-67.75
4029.823	-78.75
4032.307	-74.75
4034.789	-76.75
4037.269	-75.75
4039.747	-76.75
4042.224	-73.75
4044.699	-71.75
4047.172	-76.75
4049.643	-74.75
4052.112	-72.75
4054.58	-77.75
4057.046	-75.75
4059.51	-76.75
4061.972	-75.75
4064.432	-73.75
4066.891	-74.75
4069.348	-66.75
4071.803	-71.75
4074.256	-65.75
4076.708	-71.75
4079.158	-75.75
4081.606	-74.75
4084.052	-77.75
4086.497	-79.75
4088.939	-76.75
4091.38	-72.75
4093.819	-77.75
4096.257	-72.75
4098.693	-77.75
4101.127	-77.75
4103.559	-78.75
4105.989	40.25
4108.418	32.25
4110.845	29.25
4113.27	19.25
4115.694	27.25
4118.115	28.25
4120.535	-74.75
4122.954	-70.75
4125.37	-78.75
4127.785	-75.75
4130.198	-70.75
4132.609	-72.75
4135.019	-78.75
4137.427	-73.75
4139.833	-73.75
4142.237	-80.75