File: Data/Raman/2017-08-29 - Alluminum 2/Aug 29 2017 - Aluminum 2/EC 110 5_RamanShift_2.txt
Data from EC 110 5_RamanShift_2.txt Node

Date: Tue Aug 29 12:51:37 IDT 2017
User: aro
Spectrometer: QEPB0276
Trigger mode: 0
Integration Time (sec): 3.000000E1
Scans to average: 1
Electric dark correction enabled: true
Nonlinearity correction enabled: false
Boxcar width: 0
XAxis mode: Raman Shifts
Number of Pixels in Spectrum: 1044
>>>>>Begin Spectral Data<<<<<
160.701	33.5
166.742	43.5
172.777	69.5
178.805	177.5
184.826	418.5
190.841	828.5
196.849	1362.5
202.85	1695.5
208.845	1847.5
214.833	1861.5
220.815	1870.5
226.789	1906.5
232.758	1974.5
238.719	2032.5
244.674	2089.5
250.623	2107.5
256.565	2134.5
262.5	2159.5
268.429	2184.5
274.351	2248.5
280.267	2296.5
286.176	2330.5
292.079	2383.5
297.975	2413.5
303.865	2455.5
309.748	2463.5
315.625	2484.5
321.495	2511.5
327.359	2523.5
333.217	2554.5
339.068	2576.5
344.912	2612.5
350.751	2617.5
356.583	2618.5
362.408	2685.5
368.227	2744.5
374.04	2835.5
379.847	3010.5
385.647	3105.5
391.44	2991.5
397.228	2888.5
403.009	2905.5
408.784	3148.5
414.553	3629.5
420.315	4186.5
426.071	4218.5
431.821	3615.5
437.565	3132.5
443.302	2961.5
449.033	2857.5
454.758	2827.5
460.477	2770.5
466.189	2698.5
471.896	2674.5
477.596	2625.5
483.29	2613.5
488.978	2609.5
494.66	2588.5
500.335	2471.5
506.005	2269.5
511.668	2085.5
517.325	1895.5
522.977	1748.5
528.622	1635.5
534.261	1549.5
539.894	1488.5
545.521	1468.5
551.141	1442.5
556.756	1408.5
562.365	1390.5
567.968	1385.5
573.565	1372.5
579.155	1377.5
584.74	1402.5
590.319	1395.5
595.892	1361.5
601.459	1359.5
607.02	1376.5
612.575	1356.5
618.124	1335.5
623.667	1319.5
629.204	1293.5
634.735	1351.5
640.261	1464.5
645.781	1654.5
651.294	1731.5
656.802	1586.5
662.304	1356.5
667.8	1256.5
673.29	1215.5
678.775	1198.5
684.254	1164.5
689.726	1176.5
695.193	1173.5
700.655	1140.5
706.11	1143.5
711.56	1133.5
717.004	1119.5
722.442	1148.5
727.874	1146.5
733.301	1147.5
738.722	1168.5
744.137	1229.5
749.547	1272.5
754.951	1299.5
760.349	1279.5
765.741	1249.5
771.128	1234.5
776.509	1241.5
781.885	1277.5
787.254	1326.5
792.618	1321.5
797.977	1327.5
803.33	1336.5
808.677	1328.5
814.019	1310.5
819.355	1288.5
824.686	1263.5
830.011	1280.5
835.33	1237.5
840.644	1237.5
845.952	1215.5
851.255	1184.5
856.552	1143.5
861.844	1134.5
867.13	1112.5
872.41	1117.5
877.686	1090.5
882.955	1082.5
888.219	1065.5
893.478	1058.5
898.731	1043.5
903.979	1050.5
909.221	1031.5
914.458	1034.5
919.69	1043.5
924.916	1041.5
930.136	1037.5
935.351	1046.5
940.561	1053.5
945.766	1046.5
950.965	1039.5
956.158	1030.5
961.347	1025.5
966.529	1019.5
971.707	995.5
976.879	990.5
982.046	1000.5
987.208	991.5
992.364	979.5
997.515	1004.5
1002.66	993.5
1007.801	1031.5
1012.936	1035.5
1018.066	1029.5
1023.19	1042.5
1028.309	1063.5
1033.423	1059.5
1038.532	1062.5
1043.636	1082.5
1048.734	1065.5
1053.827	1056.5
1058.915	1051.5
1063.998	1057.5
1069.075	1054.5
1074.147	1063.5
1079.214	1058.5
1084.276	1066.5
1089.333	1045.5
1094.385	1054.5
1099.431	1044.5
1104.472	1036.5
1109.509	1021.5
1114.54	993.5
1119.565	1001.5
1124.586	975.5
1129.602	961.5
1134.613	960.5
1139.618	961.5
1144.619	959.5
1149.614	956.5
1154.604	974.5
1159.589	980.5
1164.57	991.5
1169.545	986.5
1174.515	993.5
1179.48	983.5
1184.44	976.5
1189.395	969.5
1194.345	970.5
1199.29	957.5
1204.23	966.5
1209.165	965.5
1214.095	983.5
1219.021	990.5
1223.941	988.5
1228.856	1004.5
1233.766	999.5
1238.672	989.5
1243.572	975.5
1248.467	959.5
1253.358	947.5
1258.244	934.5
1263.124	920.5
1268	904.5
1272.871	886.5
1277.737	871.5
1282.599	874.5
1287.455	881.5
1292.306	888.5
1297.153	886.5
1301.995	883.5
1306.832	902.5
1311.664	896.5
1316.491	891.5
1321.314	884.5
1326.132	878.5
1330.945	862.5
1335.753	842.5
1340.556	830.5
1345.354	816.5
1350.148	808.5
1354.937	813.5
1359.722	815.5
1364.501	830.5
1369.276	826.5
1374.046	830.5
1378.811	853.5
1383.572	842.5
1388.327	856.5
1393.079	852.5
1397.825	836.5
1402.567	826.5
1407.304	796.5
1412.036	794.5
1416.764	790.5
1421.487	788.5
1426.205	783.5
1430.919	792.5
1435.628	785.5
1440.333	782.5
1445.032	801.5
1449.727	803.5
1454.418	791.5
1459.104	789.5
1463.785	772.5
1468.462	768.5
1473.134	775.5
1477.802	756.5
1482.465	769.5
1487.123	760.5
1491.777	757.5
1496.426	772.5
1501.071	788.5
1505.711	800.5
1510.347	805.5
1514.978	829.5
1519.604	823.5
1524.226	828.5
1528.844	826.5
1533.457	815.5
1538.065	807.5
1542.669	792.5
1547.269	788.5
1551.864	789.5
1556.454	799.5
1561.041	812.5
1565.622	797.5
1570.199	772.5
1574.772	749.5
1579.34	745.5
1583.904	747.5
1588.464	744.5
1593.019	754.5
1597.569	739.5
1602.115	711.5
1606.657	700.5
1611.195	702.5
1615.728	684.5
1620.256	685.5
1624.78	687.5
1629.3	675.5
1633.816	675.5
1638.327	677.5
1642.834	678.5
1647.336	678.5
1651.834	692.5
1656.328	691.5
1660.817	695.5
1665.302	693.5
1669.783	688.5
1674.259	690.5
1678.732	682.5
1683.199	676.5
1687.663	668.5
1692.122	660.5
1696.577	673.5
1701.028	677.5
1705.474	677.5
1709.917	701.5
1714.355	698.5
1718.788	700.5
1723.218	689.5
1727.643	676.5
1732.064	663.5
1736.481	663.5
1740.893	644.5
1745.301	625.5
1749.705	600.5
1754.105	599.5
1758.501	588.5
1762.893	571.5
1767.28	576.5
1771.663	557.5
1776.042	549.5
1780.417	554.5
1784.787	546.5
1789.154	564.5
1793.516	577.5
1797.874	592.5
1802.228	596.5
1806.578	601.5
1810.924	599.5
1815.266	591.5
1819.603	568.5
1823.937	568.5
1828.266	551.5
1832.591	535.5
1836.913	544.5
1841.23	529.5
1845.543	529.5
1849.852	537.5
1854.156	536.5
1858.457	533.5
1862.754	520.5
1867.047	535.5
1871.335	525.5
1875.62	540.5
1879.9	540.5
1884.177	533.5
1888.449	539.5
1892.718	534.5
1896.982	530.5
1901.243	510.5
1905.499	514.5
1909.752	521.5
1914	526.5
1918.245	534.5
1922.485	535.5
1926.722	552.5
1930.954	553.5
1935.183	562.5
1939.408	564.5
1943.628	571.5
1947.845	565.5
1952.058	552.5
1956.267	555.5
1960.472	546.5
1964.673	531.5
1968.87	500.5
1973.063	501.5
1977.252	493.5
1981.438	487.5
1985.619	480.5
1989.797	470.5
1993.971	463.5
1998.14	458.5
2002.306	464.5
2006.469	455.5
2010.627	461.5
2014.781	452.5
2018.932	445.5
2023.078	445.5
2027.221	441.5
2031.36	430.5
2035.495	424.5
2039.627	411.5
2043.754	418.5
2047.878	415.5
2051.998	408.5
2056.114	409.5
2060.226	415.5
2064.334	415.5
2068.439	423.5
2072.54	437.5
2076.637	436.5
2080.73	438.5
2084.82	443.5
2088.906	449.5
2092.988	456.5
2097.066	447.5
2101.14	441.5
2105.211	442.5
2109.278	433.5
2113.342	434.5
2117.401	425.5
2121.457	424.5
2125.509	422.5
2129.558	416.5
2133.602	415.5
2137.643	403.5
2141.681	410.5
2145.714	396.5
2149.744	388.5
2153.77	400.5
2157.793	389.5
2161.812	388.5
2165.827	385.5
2169.838	370.5
2173.846	367.5
2177.851	369.5
2181.851	353.5
2185.848	356.5
2189.841	350.5
2193.831	354.5
2197.817	353.5
2201.799	354.5
2205.778	344.5
2209.753	334.5
2213.725	353.5
2217.693	346.5
2221.657	340.5
2225.618	343.5
2229.575	353.5
2233.529	342.5
2237.479	342.5
2241.425	343.5
2245.368	339.5
2249.307	327.5
2253.243	328.5
2257.175	323.5
2261.104	332.5
2265.029	318.5
2268.95	309.5
2272.868	321.5
2276.783	307.5
2280.694	313.5
2284.601	311.5
2288.505	314.5
2292.405	305.5
2296.302	298.5
2300.195	301.5
2304.085	302.5
2307.971	294.5
2311.854	285.5
2315.734	288.5
2319.609	289.5
2323.482	294.5
2327.351	309.5
2331.216	340.5
2335.078	347.5
2338.937	309.5
2342.792	269.5
2346.643	277.5
2350.492	263.5
2354.336	262.5
2358.178	271.5
2362.015	267.5
2365.85	271.5
2369.681	270.5
2373.508	270.5
2377.333	271.5
2381.153	275.5
2384.971	278.5
2388.785	272.5
2392.595	271.5
2396.402	264.5
2400.206	259.5
2404.007	263.5
2407.804	259.5
2411.597	264.5
2415.388	259.5
2419.174	265.5
2422.958	247.5
2426.738	255.5
2430.515	253.5
2434.289	257.5
2438.059	245.5
2441.825	249.5
2445.589	240.5
2449.349	237.5
2453.106	241.5
2456.859	230.5
2460.61	227.5
2464.356	223.5
2468.1	229.5
2471.84	229.5
2475.577	215.5
2479.311	228.5
2483.041	224.5
2486.768	225.5
2490.492	223.5
2494.213	225.5
2497.93	218.5
2501.644	221.5
2505.355	220.5
2509.062	215.5
2512.766	218.5
2516.467	219.5
2520.165	215.5
2523.859	216.5
2527.551	217.5
2531.239	212.5
2534.923	210.5
2538.605	214.5
2542.283	205.5
2545.958	218.5
2549.63	219.5
2553.299	222.5
2556.964	220.5
2560.626	207.5
2564.285	216.5
2567.941	212.5
2571.594	213.5
2575.243	213.5
2578.89	219.5
2582.533	208.5
2586.173	197.5
2589.809	210.5
2593.443	206.5
2597.073	204.5
2600.701	201.5
2604.325	203.5
2607.946	208.5
2611.564	204.5
2615.178	189.5
2618.79	195.5
2622.398	197.5
2626.004	184.5
2629.606	183.5
2633.205	178.5
2636.801	181.5
2640.394	185.5
2643.983	177.5
2647.57	176.5
2651.153	159.5
2654.734	164.5
2658.311	164.5
2661.885	157.5
2665.456	156.5
2669.025	159.5
2672.589	158.5
2676.151	152.5
2679.71	143.5
2683.266	145.5
2686.819	143.5
2690.368	141.5
2693.915	136.5
2697.458	132.5
2700.999	134.5
2704.536	125.5
2708.071	127.5
2711.602	118.5
2715.13	120.5
2718.656	117.5
2722.178	112.5
2725.697	110.5
2729.214	111.5
2732.727	116.5
2736.237	111.5
2739.744	111.5
2743.249	112.5
2746.75	122.5
2750.248	117.5
2753.743	121.5
2757.236	123.5
2760.725	115.5
2764.211	108.5
2767.695	123.5
2771.175	116.5
2774.652	116.5
2778.127	118.5
2781.598	109.5
2785.067	114.5
2788.532	113.5
2791.995	113.5
2795.455	101.5
2798.911	107.5
2802.365	106.5
2805.816	109.5
2809.264	105.5
2812.709	103.5
2816.151	102.5
2819.59	110.5
2823.026	103.5
2826.46	95.5
2829.89	99.5
2833.318	102.5
2836.742	99.5
2840.164	87.5
2843.583	104.5
2846.999	102.5
2850.412	88.5
2853.822	96.5
2857.229	97.5
2860.634	98.5
2864.035	89.5
2867.434	93.5
2870.83	93.5
2874.223	86.5
2877.613	79.5
2881	80.5
2884.385	75.5
2887.766	76.5
2891.145	78.5
2894.521	73.5
2897.894	65.5
2901.264	71.5
2904.631	68.5
2907.996	62.5
2911.358	60.5
2914.717	61.5
2918.073	59.5
2921.426	60.5
2924.777	54.5
2928.124	59.5
2931.469	53.5
2934.811	57.5
2938.15	54.5
2941.487	46.5
2944.821	50.5
2948.152	43.5
2951.48	36.5
2954.805	41.5
2958.128	37.5
2961.447	38.5
2964.765	37.5
2968.079	45.5
2971.39	36.5
2974.699	34.5
2978.005	39.5
2981.308	32.5
2984.609	30.5
2987.907	38.5
2991.202	37.5
2994.494	42.5
2997.784	38.5
3001.07	38.5
3004.355	35.5
3007.636	34.5
3010.915	36.5
3014.191	29.5
3017.464	30.5
3020.734	25.5
3024.002	15.5
3027.267	24.5
3030.53	23.5
3033.789	27.5
3037.046	22.5
3040.301	13.5
3043.552	12.5
3046.801	19.5
3050.048	9.5
3053.291	12.5
3056.532	13.5
3059.771	15.5
3063.006	9.5
3066.239	11.5
3069.469	17.5
3072.697	10.5
3075.922	9.5
3079.144	10.5
3082.364	6.5
3085.581	10.5
3088.795	3.5
3092.007	-2.5
3095.216	6.5
3098.423	10.5
3101.627	7.5
3104.828	3.5
3108.026	-2.5
3111.222	1.5
3114.416	8.5
3117.607	7.5
3120.795	0.5
3123.98	-0.5
3127.163	2.5
3130.344	-0.5
3133.521	1.5
3136.696	1.5
3139.869	5.5
3143.039	-2.5
3146.206	-2.5
3149.371	-6.5
3152.533	-9.5
3155.693	-7.5
3158.85	-5.5
3162.005	-5.5
3165.157	-11.5
3168.306	-6.5
3171.453	-9.5
3174.597	-13.5
3177.739	-8.5
3180.878	-14.5
3184.014	-19.5
3187.149	-17.5
3190.28	-18.5
3193.409	-19.5
3196.536	-26.5
3199.659	-22.5
3202.781	-23.5
3205.9	-18.5
3209.016	-27.5
3212.13	-29.5
3215.241	-21.5
3218.35	-29.5
3221.456	-27.5
3224.56	-31.5
3227.661	-31.5
3230.76	-31.5
3233.856	-36.5
3236.95	-30.5
3240.041	-33.5
3243.13	-35.5
3246.216	-32.5
3249.3	-33.5
3252.382	-31.5
3255.46	-27.5
3258.537	-5.5
3261.611	-31.5
3264.682	-36.5
3267.751	-30.5
3270.818	-38.5
3273.882	-38.5
3276.943	-35.5
3280.002	-33.5
3283.059	-38.5
3286.113	-29.5
3289.165	-33.5
3292.214	-37.5
3295.261	-35.5
3298.306	-34.5
3301.348	-40.5
3304.387	-40.5
3307.425	-42.5
3310.459	-44.5
3313.492	-45.5
3316.521	-44.5
3319.549	-48.5
3322.574	-45.5
3325.597	-48.5
3328.617	-44.5
3331.635	-48.5
3334.65	-46.5
3337.663	-51.5
3340.674	-41.5
3343.682	-44.5
3346.688	-50.5
3349.691	-51.5
3352.692	-49.5
3355.691	-50.5
3358.687	-48.5
3361.681	-45.5
3364.673	-48.5
3367.662	-45.5
3370.649	-52.5
3373.633	-46.5
3376.615	-48.5
3379.595	-51.5
3382.572	-45.5
3385.547	-50.5
3388.52	-47.5
3391.49	-48.5
3394.458	-54.5
3397.424	-48.5
3400.387	-51.5
3403.348	-51.5
3406.307	-54.5
3409.263	-49.5
3412.217	-49.5
3415.168	-53.5
3418.118	-48.5
3421.065	-52.5
3424.009	-46.5
3426.951	-51.5
3429.891	-53.5
3432.829	-55.5
3435.764	-59.5
3438.697	-50.5
3441.628	-57.5
3444.557	-51.5
3447.483	-55.5
3450.407	-61.5
3453.328	-54.5
3456.247	-58.5
3459.164	-55.5
3462.079	-59.5
3464.991	-57.5
3467.902	-61.5
3470.809	-65.5
3473.715	-60.5
3476.618	-63.5
3479.519	-55.5
3482.418	-65.5
3485.315	-62.5
3488.209	-63.5
3491.101	-60.5
3493.99	-59.5
3496.878	-64.5
3499.763	-65.5
3502.646	-54.5
3505.527	-70.5
3508.405	-62.5
3511.281	-64.5
3514.155	-60.5
3517.027	-65.5
3519.897	-63.5
3522.764	-58.5
3525.629	-64.5
3528.492	-62.5
3531.352	-60.5
3534.211	-64.5
3537.067	-63.5
3539.921	-58.5
3542.773	-64.5
3545.622	-61.5
3548.469	-69.5
3551.315	-58.5
3554.157	-59.5
3556.998	-67.5
3559.837	-60.5
3562.673	-62.5
3565.507	-63.5
3568.339	-66.5
3571.169	-68.5
3573.996	-66.5
3576.822	-59.5
3579.645	-68.5
3582.466	-68.5
3585.285	-69.5
3588.101	-70.5
3590.916	-71.5
3593.728	-60.5
3596.538	-73.5
3599.346	-71.5
3602.152	-67.5
3604.956	-67.5
3607.757	-67.5
3610.556	-70.5
3613.354	-64.5
3616.149	-71.5
3618.942	-70.5
3621.732	-67.5
3624.521	-66.5
3627.307	-66.5
3630.092	-67.5
3632.874	-69.5
3635.654	-67.5
3638.432	-70.5
3641.208	-70.5
3643.982	-63.5
3646.753	-70.5
3649.523	-71.5
3652.29	-70.5
3655.055	-66.5
3657.818	-69.5
3660.579	-67.5
3663.338	-73.5
3666.095	-67.5
3668.849	-68.5
3671.602	-70.5
3674.352	-69.5
3677.101	-68.5
3679.847	-72.5
3682.591	-71.5
3685.333	-69.5
3688.073	-79.5
3690.811	-67.5
3693.547	-66.5
3696.281	-68.5
3699.013	-69.5
3701.742	-68.5
3704.47	-70.5
3707.195	-68.5
3709.919	-68.5
3712.64	-75.5
3715.359	-66.5
3718.076	-66.5
3720.792	-75.5
3723.505	-70.5
3726.216	-77.5
3728.925	-72.5
3731.632	-70.5
3734.336	-72.5
3737.039	-77.5
3739.74	-68.5
3742.439	-70.5
3745.136	-77.5
3747.83	-76.5
3750.523	-71.5
3753.213	-96.5
3755.902	-75.5
3758.589	-73.5
3761.273	-75.5
3763.956	-75.5
3766.636	-73.5
3769.315	-71.5
3771.991	-75.5
3774.665	-71.5
3777.338	-71.5
3780.008	-79.5
3782.677	-75.5
3785.343	-74.5
3788.007	-76.5
3790.67	-72.5
3793.33	-76.5
3795.989	-69.5
3798.645	-80.5
3801.299	-75.5
3803.952	-80.5
3806.602	-82.5
3809.251	-83.5
3811.897	-76.5
3814.542	-74.5
3817.184	-77.5
3819.825	-76.5
3822.463	-76.5
3825.1	-78.5
3827.735	-75.5
3830.367	-79.5
3832.998	-72.5
3835.627	-73.5
3838.253	-75.5
3840.878	-70.5
3843.501	-66.5
3846.122	-79.5
3848.741	-77.5
3851.358	-74.5
3853.973	-73.5
3856.586	-78.5
3859.197	-70.5
3861.806	-76.5
3864.414	-72.5
3867.019	-68.5
3869.622	-64.5
3872.224	-61.5
3874.823	-43.5
3877.421	-27.5
3880.016	-0.5
3882.61	26.5
3885.202	41.5
3887.792	17.5
3890.38	-18.5
3892.966	-52.5
3895.55	-62.5
3898.132	-74.5
3900.713	-72.5
3903.291	-83.5
3905.868	-74.5
3908.442	-75.5
3911.015	-73.5
3913.586	-77.5
3916.155	-71.5
3918.722	-77.5
3921.287	-75.5
3923.85	-77.5
3926.411	-72.5
3928.971	-77.5
3931.528	-72.5
3934.084	-79.5
3936.638	-79.5
3939.19	-78.5
3941.74	-77.5
3944.288	-78.5
3946.834	-74.5
3949.378	-79.5
3951.921	-73.5
3954.462	-78.5
3957	-74.5
3959.537	-69.5
3962.072	-68.5
3964.606	-73.5
3967.137	-71.5
3969.667	-73.5
3972.194	-78.5
3974.72	-78.5
3977.244	-74.5
3979.766	-79.5
3982.286	-75.5
3984.805	-74.5
3987.321	-72.5
3989.836	-72.5
3992.349	-69.5
3994.86	-74.5
3997.369	-76.5
3999.877	-69.5
4002.382	-73.5
4004.886	-75.5
4007.388	-70.5
4009.888	-71.5
4012.386	-76.5
4014.883	-76.5
4017.377	-69.5
4019.87	-72.5
4022.361	-74.5
4024.85	-71.5
4027.338	-68.5
4029.823	-76.5
4032.307	-74.5
4034.789	-70.5
4037.269	-69.5
4039.747	-76.5
4042.224	-74.5
4044.699	-74.5
4047.172	-72.5
4049.643	-68.5
4052.112	-68.5
4054.58	-81.5
4057.046	-71.5
4059.51	-79.5
4061.972	-76.5
4064.432	-71.5
4066.891	-76.5
4069.348	-73.5
4071.803	-71.5
4074.256	-70.5
4076.708	-77.5
4079.158	-76.5
4081.606	-73.5
4084.052	-76.5
4086.497	-81.5
4088.939	-79.5
4091.38	-77.5
4093.819	-85.5
4096.257	-74.5
4098.693	-76.5
4101.127	-77.5
4103.559	-77.5
4105.989	42.5
4108.418	40.5
4110.845	30.5
4113.27	22.5
4115.694	28.5
4118.115	31.5
4120.535	-73.5
4122.954	-74.5
4125.37	-80.5
4127.785	-76.5
4130.198	-75.5
4132.609	-79.5
4135.019	-79.5
4137.427	-77.5
4139.833	-81.5
4142.237	-85.5