File: Data/Raman/2017-08-29 - Alluminum 2/Aug 29 2017 - Aluminum 2/EC 110 2_RamanShift_3.txt
Data from EC 110 2_RamanShift_3.txt Node

Date: Tue Aug 29 12:11:07 IDT 2017
User: aro
Spectrometer: QEPB0276
Trigger mode: 0
Integration Time (sec): 3.000000E1
Scans to average: 1
Electric dark correction enabled: true
Nonlinearity correction enabled: false
Boxcar width: 0
XAxis mode: Raman Shifts
Number of Pixels in Spectrum: 1044
>>>>>Begin Spectral Data<<<<<
160.701	38.88
166.742	43.88
172.777	91.88
178.805	244.88
184.826	571.88
190.841	1155.88
196.849	1861.88
202.85	2381.88
208.845	2571.88
214.833	2618.88
220.815	2661.88
226.789	2704.88
232.758	2791.88
238.719	2862.88
244.674	2909.88
250.623	2941.88
256.565	2973.88
262.5	3031.88
268.429	3045.88
274.351	3103.88
280.267	3160.88
286.176	3197.88
292.079	3246.88
297.975	3294.88
303.865	3372.88
309.748	3387.88
315.625	3411.88
321.495	3427.88
327.359	3462.88
333.217	3489.88
339.068	3505.88
344.912	3530.88
350.751	3575.88
356.583	3594.88
362.408	3621.88
368.227	3683.88
374.04	3833.88
379.847	4017.88
385.647	4117.88
391.44	4015.88
397.228	3865.88
403.009	3882.88
408.784	4190.88
414.553	4767.88
420.315	5454.88
426.071	5495.88
431.821	4769.88
437.565	4153.88
443.302	3942.88
449.033	3839.88
454.758	3794.88
460.477	3719.88
466.189	3673.88
471.896	3600.88
477.596	3572.88
483.29	3533.88
488.978	3545.88
494.66	3488.88
500.335	3369.88
506.005	3132.88
511.668	2887.88
517.325	2660.88
522.977	2514.88
528.622	2383.88
534.261	2282.88
539.894	2234.88
545.521	2158.88
551.141	2144.88
556.756	2122.88
562.365	2092.88
567.968	2083.88
573.565	2063.88
579.155	2097.88
584.74	2071.88
590.319	2063.88
595.892	2020.88
601.459	2018.88
607.02	2042.88
612.575	2012.88
618.124	1982.88
623.667	1964.88
629.204	1952.88
634.735	1992.88
640.261	2128.88
645.781	2365.88
651.294	2470.88
656.802	2270.88
662.304	2012.88
667.8	1873.88
673.29	1818.88
678.775	1790.88
684.254	1798.88
689.726	1772.88
695.193	1752.88
700.655	1731.88
706.11	1717.88
711.56	1712.88
717.004	1698.88
722.442	1705.88
727.874	1715.88
733.301	1714.88
738.722	1742.88
744.137	1790.88
749.547	1836.88
754.951	1878.88
760.349	1863.88
765.741	1800.88
771.128	1793.88
776.509	1815.88
781.885	1844.88
787.254	1871.88
792.618	1897.88
797.977	1912.88
803.33	1850.88
808.677	1857.88
814.019	1854.88
819.355	1806.88
824.686	1811.88
830.011	1783.88
835.33	1772.88
840.644	1755.88
845.952	1745.88
851.255	1713.88
856.552	1650.88
861.844	1643.88
867.13	1619.88
872.41	1611.88
877.686	1587.88
882.955	1553.88
888.219	1546.88
893.478	1528.88
898.731	1509.88
903.979	1495.88
909.221	1509.88
914.458	1499.88
919.69	1493.88
924.916	1495.88
930.136	1510.88
935.351	1485.88
940.561	1504.88
945.766	1494.88
950.965	1493.88
956.158	1475.88
961.347	1463.88
966.529	1469.88
971.707	1440.88
976.879	1420.88
982.046	1395.88
987.208	1408.88
992.364	1385.88
997.515	1408.88
1002.66	1414.88
1007.801	1432.88
1012.936	1449.88
1018.066	1460.88
1023.19	1492.88
1028.309	1482.88
1033.423	1477.88
1038.532	1476.88
1043.636	1488.88
1048.734	1460.88
1053.827	1468.88
1058.915	1458.88
1063.998	1473.88
1069.075	1458.88
1074.147	1459.88
1079.214	1458.88
1084.276	1440.88
1089.333	1451.88
1094.385	1450.88
1099.431	1446.88
1104.472	1424.88
1109.509	1399.88
1114.54	1376.88
1119.565	1360.88
1124.586	1332.88
1129.602	1319.88
1134.613	1317.88
1139.618	1309.88
1144.619	1333.88
1149.614	1311.88
1154.604	1329.88
1159.589	1325.88
1164.57	1357.88
1169.545	1367.88
1174.515	1353.88
1179.48	1358.88
1184.44	1338.88
1189.395	1331.88
1194.345	1329.88
1199.29	1319.88
1204.23	1313.88
1209.165	1317.88
1214.095	1321.88
1219.021	1338.88
1223.941	1352.88
1228.856	1346.88
1233.766	1340.88
1238.672	1338.88
1243.572	1314.88
1248.467	1309.88
1253.358	1292.88
1258.244	1291.88
1263.124	1248.88
1268	1209.88
1272.871	1191.88
1277.737	1189.88
1282.599	1181.88
1287.455	1186.88
1292.306	1180.88
1297.153	1199.88
1301.995	1199.88
1306.832	1214.88
1311.664	1206.88
1316.491	1213.88
1321.314	1182.88
1326.132	1176.88
1330.945	1165.88
1335.753	1122.88
1340.556	1117.88
1345.354	1106.88
1350.148	1077.88
1354.937	1083.88
1359.722	1061.88
1364.501	1095.88
1369.276	1069.88
1374.046	1095.88
1378.811	1081.88
1383.572	1078.88
1388.327	1089.88
1393.079	1087.88
1397.825	1044.88
1402.567	1041.88
1407.304	1025.88
1412.036	1018.88
1416.764	1016.88
1421.487	1019.88
1426.205	1005.88
1430.919	1008.88
1435.628	1018.88
1440.333	1023.88
1445.032	1029.88
1449.727	1024.88
1454.418	1024.88
1459.104	1024.88
1463.785	1009.88
1468.462	1004.88
1473.134	991.88
1477.802	974.88
1482.465	968.88
1487.123	963.88
1491.777	955.88
1496.426	970.88
1501.071	978.88
1505.711	994.88
1510.347	999.88
1514.978	1021.88
1519.604	1015.88
1524.226	1014.88
1528.844	993.88
1533.457	995.88
1538.065	996.88
1542.669	965.88
1547.269	963.88
1551.864	961.88
1556.454	949.88
1561.041	968.88
1565.622	933.88
1570.199	916.88
1574.772	924.88
1579.34	926.88
1583.904	926.88
1588.464	920.88
1593.019	901.88
1597.569	908.88
1602.115	877.88
1606.657	881.88
1611.195	861.88
1615.728	836.88
1620.256	842.88
1624.78	825.88
1629.3	818.88
1633.816	836.88
1638.327	836.88
1642.834	840.88
1647.336	839.88
1651.834	854.88
1656.328	850.88
1660.817	838.88
1665.302	845.88
1669.783	850.88
1674.259	834.88
1678.732	817.88
1683.199	828.88
1687.663	818.88
1692.122	794.88
1696.577	796.88
1701.028	804.88
1705.474	790.88
1709.917	811.88
1714.355	797.88
1718.788	796.88
1723.218	792.88
1727.643	775.88
1732.064	772.88
1736.481	757.88
1740.893	729.88
1745.301	723.88
1749.705	718.88
1754.105	690.88
1758.501	682.88
1762.893	671.88
1767.28	666.88
1771.663	658.88
1776.042	643.88
1780.417	647.88
1784.787	637.88
1789.154	651.88
1793.516	658.88
1797.874	666.88
1802.228	665.88
1806.578	665.88
1810.924	679.88
1815.266	649.88
1819.603	639.88
1823.937	628.88
1828.266	618.88
1832.591	612.88
1836.913	618.88
1841.23	601.88
1845.543	610.88
1849.852	592.88
1854.156	597.88
1858.457	593.88
1862.754	603.88
1867.047	603.88
1871.335	607.88
1875.62	602.88
1879.9	603.88
1884.177	594.88
1888.449	597.88
1892.718	603.88
1896.982	586.88
1901.243	579.88
1905.499	577.88
1909.752	580.88
1914	582.88
1918.245	590.88
1922.485	590.88
1926.722	589.88
1930.954	603.88
1935.183	600.88
1939.408	601.88
1943.628	617.88
1947.845	603.88
1952.058	593.88
1956.267	582.88
1960.472	571.88
1964.673	557.88
1968.87	539.88
1973.063	532.88
1977.252	520.88
1981.438	519.88
1985.619	502.88
1989.797	491.88
1993.971	497.88
1998.14	496.88
2002.306	498.88
2006.469	491.88
2010.627	480.88
2014.781	477.88
2018.932	481.88
2023.078	481.88
2027.221	474.88
2031.36	465.88
2035.495	463.88
2039.627	455.88
2043.754	455.88
2047.878	447.88
2051.998	441.88
2056.114	430.88
2060.226	448.88
2064.334	442.88
2068.439	443.88
2072.54	449.88
2076.637	454.88
2080.73	455.88
2084.82	452.88
2088.906	468.88
2092.988	466.88
2097.066	460.88
2101.14	443.88
2105.211	446.88
2109.278	438.88
2113.342	434.88
2117.401	432.88
2121.457	431.88
2125.509	421.88
2129.558	417.88
2133.602	408.88
2137.643	413.88
2141.681	399.88
2145.714	404.88
2149.744	394.88
2153.77	389.88
2157.793	396.88
2161.812	387.88
2165.827	385.88
2169.838	373.88
2173.846	371.88
2177.851	367.88
2181.851	360.88
2185.848	354.88
2189.841	353.88
2193.831	347.88
2197.817	355.88
2201.799	340.88
2205.778	342.88
2209.753	341.88
2213.725	350.88
2217.693	342.88
2221.657	336.88
2225.618	348.88
2229.575	349.88
2233.529	348.88
2237.479	339.88
2241.425	337.88
2245.368	328.88
2249.307	324.88
2253.243	323.88
2257.175	317.88
2261.104	314.88
2265.029	312.88
2268.95	316.88
2272.868	306.88
2276.783	303.88
2280.694	294.88
2284.601	294.88
2288.505	292.88
2292.405	295.88
2296.302	286.88
2300.195	282.88
2304.085	288.88
2307.971	276.88
2311.854	277.88
2315.734	273.88
2319.609	268.88
2323.482	268.88
2327.351	276.88
2331.216	295.88
2335.078	299.88
2338.937	276.88
2342.792	255.88
2346.643	249.88
2350.492	251.88
2354.336	256.88
2358.178	255.88
2362.015	256.88
2365.85	242.88
2369.681	256.88
2373.508	260.88
2377.333	257.88
2381.153	250.88
2384.971	251.88
2388.785	254.88
2392.595	253.88
2396.402	248.88
2400.206	241.88
2404.007	243.88
2407.804	243.88
2411.597	247.88
2415.388	237.88
2419.174	237.88
2422.958	238.88
2426.738	243.88
2430.515	235.88
2434.289	237.88
2438.059	232.88
2441.825	224.88
2445.589	222.88
2449.349	223.88
2453.106	207.88
2456.859	218.88
2460.61	214.88
2464.356	205.88
2468.1	200.88
2471.84	201.88
2475.577	204.88
2479.311	209.88
2483.041	209.88
2486.768	195.88
2490.492	199.88
2494.213	200.88
2497.93	200.88
2501.644	194.88
2505.355	194.88
2509.062	191.88
2512.766	191.88
2516.467	195.88
2520.165	187.88
2523.859	179.88
2527.551	186.88
2531.239	185.88
2534.923	186.88
2538.605	196.88
2542.283	187.88
2545.958	188.88
2549.63	186.88
2553.299	175.88
2556.964	182.88
2560.626	177.88
2564.285	175.88
2567.941	184.88
2571.594	179.88
2575.243	183.88
2578.89	175.88
2582.533	175.88
2586.173	167.88
2589.809	172.88
2593.443	172.88
2597.073	163.88
2600.701	166.88
2604.325	162.88
2607.946	159.88
2611.564	157.88
2615.178	157.88
2618.79	153.88
2622.398	148.88
2626.004	144.88
2629.606	142.88
2633.205	142.88
2636.801	138.88
2640.394	135.88
2643.983	143.88
2647.57	128.88
2651.153	122.88
2654.734	127.88
2658.311	123.88
2661.885	112.88
2665.456	121.88
2669.025	117.88
2672.589	122.88
2676.151	113.88
2679.71	97.88
2683.266	116.88
2686.819	109.88
2690.368	105.88
2693.915	99.88
2697.458	100.88
2700.999	97.88
2704.536	92.88
2708.071	90.88
2711.602	87.88
2715.13	80.88
2718.656	82.88
2722.178	71.88
2725.697	72.88
2729.214	76.88
2732.727	83.88
2736.237	84.88
2739.744	79.88
2743.249	83.88
2746.75	72.88
2750.248	78.88
2753.743	87.88
2757.236	82.88
2760.725	75.88
2764.211	71.88
2767.695	81.88
2771.175	80.88
2774.652	81.88
2778.127	78.88
2781.598	67.88
2785.067	70.88
2788.532	76.88
2791.995	66.88
2795.455	64.88
2798.911	68.88
2802.365	60.88
2805.816	63.88
2809.264	61.88
2812.709	63.88
2816.151	68.88
2819.59	69.88
2823.026	59.88
2826.46	61.88
2829.89	56.88
2833.318	59.88
2836.742	62.88
2840.164	58.88
2843.583	60.88
2846.999	64.88
2850.412	57.88
2853.822	51.88
2857.229	61.88
2860.634	61.88
2864.035	52.88
2867.434	58.88
2870.83	47.88
2874.223	54.88
2877.613	42.88
2881	39.88
2884.385	39.88
2887.766	43.88
2891.145	36.88
2894.521	37.88
2897.894	24.88
2901.264	28.88
2904.631	28.88
2907.996	25.88
2911.358	24.88
2914.717	20.88
2918.073	10.88
2921.426	19.88
2924.777	21.88
2928.124	18.88
2931.469	14.88
2934.811	13.88
2938.15	12.88
2941.487	12.88
2944.821	11.88
2948.152	0.88
2951.48	4.88
2954.805	12.88
2958.128	7.88
2961.447	4.88
2964.765	1.88
2968.079	5.88
2971.39	-1.12
2974.699	0.88
2978.005	-1.12
2981.308	-2.12
2984.609	-2.12
2987.907	-1.12
2991.202	-4.12
2994.494	2.88
2997.784	1.88
3001.07	-2.12
3004.355	2.88
3007.636	-0.12
3010.915	-5.12
3014.191	-8.12
3017.464	-5.12
3020.734	-7.12
3024.002	-12.12
3027.267	-14.12
3030.53	-14.12
3033.789	-5.12
3037.046	-17.12
3040.301	-18.12
3043.552	-23.12
3046.801	-21.12
3050.048	-26.12
3053.291	-21.12
3056.532	-21.12
3059.771	-14.12
3063.006	-27.12
3066.239	-27.12
3069.469	-22.12
3072.697	-25.12
3075.922	-23.12
3079.144	-29.12
3082.364	-30.12
3085.581	-30.12
3088.795	-30.12
3092.007	-39.12
3095.216	-28.12
3098.423	-31.12
3101.627	-27.12
3104.828	-37.12
3108.026	-34.12
3111.222	-33.12
3114.416	-29.12
3117.607	-39.12
3120.795	-29.12
3123.98	-34.12
3127.163	-38.12
3130.344	-30.12
3133.521	-43.12
3136.696	-35.12
3139.869	-35.12
3143.039	-37.12
3146.206	-42.12
3149.371	-47.12
3152.533	-45.12
3155.693	-41.12
3158.85	-46.12
3162.005	-48.12
3165.157	-49.12
3168.306	-40.12
3171.453	-48.12
3174.597	-46.12
3177.739	-50.12
3180.878	-52.12
3184.014	-51.12
3187.149	-50.12
3190.28	-52.12
3193.409	-53.12
3196.536	-59.12
3199.659	-55.12
3202.781	-55.12
3205.9	-54.12
3209.016	-68.12
3212.13	-59.12
3215.241	-66.12
3218.35	-54.12
3221.456	-60.12
3224.56	-60.12
3227.661	-64.12
3230.76	-64.12
3233.856	-65.12
3236.95	-63.12
3240.041	-63.12
3243.13	-62.12
3246.216	-63.12
3249.3	-67.12
3252.382	-63.12
3255.46	-60.12
3258.537	-33.12
3261.611	-61.12
3264.682	-64.12
3267.751	-60.12
3270.818	-64.12
3273.882	-67.12
3276.943	-65.12
3280.002	-59.12
3283.059	-68.12
3286.113	-64.12
3289.165	-69.12
3292.214	-64.12
3295.261	-68.12
3298.306	-63.12
3301.348	-70.12
3304.387	-65.12
3307.425	-69.12
3310.459	-79.12
3313.492	-75.12
3316.521	-79.12
3319.549	-74.12
3322.574	-82.12
3325.597	-82.12
3328.617	-71.12
3331.635	-81.12
3334.65	-72.12
3337.663	-79.12
3340.674	-70.12
3343.682	-75.12
3346.688	-76.12
3349.691	-81.12
3352.692	-77.12
3355.691	-81.12
3358.687	-71.12
3361.681	-79.12
3364.673	-82.12
3367.662	-77.12
3370.649	-81.12
3373.633	-76.12
3376.615	-79.12
3379.595	-83.12
3382.572	-75.12
3385.547	-81.12
3388.52	-78.12
3391.49	-83.12
3394.458	-81.12
3397.424	-77.12
3400.387	-76.12
3403.348	-80.12
3406.307	-79.12
3409.263	-78.12
3412.217	-77.12
3415.168	-85.12
3418.118	-77.12
3421.065	-84.12
3424.009	-82.12
3426.951	-80.12
3429.891	-81.12
3432.829	-79.12
3435.764	-81.12
3438.697	-81.12
3441.628	-84.12
3444.557	-80.12
3447.483	-86.12
3450.407	-93.12
3453.328	-84.12
3456.247	-91.12
3459.164	-86.12
3462.079	-86.12
3464.991	-89.12
3467.902	-90.12
3470.809	-91.12
3473.715	-86.12
3476.618	-89.12
3479.519	-79.12
3482.418	-95.12
3485.315	-91.12
3488.209	-97.12
3491.101	-91.12
3493.99	-90.12
3496.878	-98.12
3499.763	-95.12
3502.646	-86.12
3505.527	-99.12
3508.405	-92.12
3511.281	-93.12
3514.155	-88.12
3517.027	-95.12
3519.897	-96.12
3522.764	-90.12
3525.629	-90.12
3528.492	-95.12
3531.352	-92.12
3534.211	-96.12
3537.067	-95.12
3539.921	-88.12
3542.773	-91.12
3545.622	-88.12
3548.469	-94.12
3551.315	-84.12
3554.157	-91.12
3556.998	-93.12
3559.837	-86.12
3562.673	-91.12
3565.507	-91.12
3568.339	-87.12
3571.169	-95.12
3573.996	-96.12
3576.822	-93.12
3579.645	-93.12
3582.466	-90.12
3585.285	-91.12
3588.101	-97.12
3590.916	-95.12
3593.728	-90.12
3596.538	-98.12
3599.346	-96.12
3602.152	-94.12
3604.956	-91.12
3607.757	-96.12
3610.556	-96.12
3613.354	-94.12
3616.149	-100.12
3618.942	-97.12
3621.732	-96.12
3624.521	-95.12
3627.307	-99.12
3630.092	-95.12
3632.874	-100.12
3635.654	-100.12
3638.432	-99.12
3641.208	-102.12
3643.982	-101.12
3646.753	-97.12
3649.523	-103.12
3652.29	-102.12
3655.055	-100.12
3657.818	-105.12
3660.579	-101.12
3663.338	-103.12
3666.095	-100.12
3668.849	-101.12
3671.602	-101.12
3674.352	-106.12
3677.101	-98.12
3679.847	-104.12
3682.591	-101.12
3685.333	-101.12
3688.073	-106.12
3690.811	-99.12
3693.547	-98.12
3696.281	-99.12
3699.013	-98.12
3701.742	-101.12
3704.47	-101.12
3707.195	-99.12
3709.919	-99.12
3712.64	-101.12
3715.359	-104.12
3718.076	-96.12
3720.792	-100.12
3723.505	-97.12
3726.216	-101.12
3728.925	-102.12
3731.632	-99.12
3734.336	-101.12
3737.039	-105.12
3739.74	-104.12
3742.439	-94.12
3745.136	-100.12
3747.83	-101.12
3750.523	-100.12
3753.213	-114.12
3755.902	-100.12
3758.589	-99.12
3761.273	-103.12
3763.956	-104.12
3766.636	-102.12
3769.315	-100.12
3771.991	-100.12
3774.665	-95.12
3777.338	-100.12
3780.008	-108.12
3782.677	-104.12
3785.343	-105.12
3788.007	-106.12
3790.67	-98.12
3793.33	-104.12
3795.989	-99.12
3798.645	-105.12
3801.299	-100.12
3803.952	-99.12
3806.602	-106.12
3809.251	-107.12
3811.897	-103.12
3814.542	-102.12
3817.184	-105.12
3819.825	-99.12
3822.463	-103.12
3825.1	-104.12
3827.735	-102.12
3830.367	-108.12
3832.998	-101.12
3835.627	-100.12
3838.253	-101.12
3840.878	-102.12
3843.501	-97.12
3846.122	-103.12
3848.741	-105.12
3851.358	-105.12
3853.973	-105.12
3856.586	-108.12
3859.197	-94.12
3861.806	-98.12
3864.414	-105.12
3867.019	-89.12
3869.622	-93.12
3872.224	-78.12
3874.823	-60.12
3877.421	-34.12
3880.016	12.88
3882.61	48.88
3885.202	69.88
3887.792	36.88
3890.38	-21.12
3892.966	-60.12
3895.55	-83.12
3898.132	-90.12
3900.713	-99.12
3903.291	-103.12
3905.868	-100.12
3908.442	-99.12
3911.015	-103.12
3913.586	-101.12
3916.155	-101.12
3918.722	-107.12
3921.287	-102.12
3923.85	-105.12
3926.411	-101.12
3928.971	-103.12
3931.528	-101.12
3934.084	-102.12
3936.638	-103.12
3939.19	-108.12
3941.74	-99.12
3944.288	-104.12
3946.834	-102.12
3949.378	-103.12
3951.921	-98.12
3954.462	-102.12
3957	-98.12
3959.537	-94.12
3962.072	-97.12
3964.606	-105.12
3967.137	-100.12
3969.667	-97.12
3972.194	-104.12
3974.72	-106.12
3977.244	-107.12
3979.766	-102.12
3982.286	-100.12
3984.805	-102.12
3987.321	-100.12
3989.836	-97.12
3992.349	-102.12
3994.86	-101.12
3997.369	-101.12
3999.877	-95.12
4002.382	-100.12
4004.886	-100.12
4007.388	-98.12
4009.888	-99.12
4012.386	-99.12
4014.883	-103.12
4017.377	-100.12
4019.87	-98.12
4022.361	-105.12
4024.85	-101.12
4027.338	-98.12
4029.823	-102.12
4032.307	-99.12
4034.789	-102.12
4037.269	-105.12
4039.747	-106.12
4042.224	-99.12
4044.699	-99.12
4047.172	-102.12
4049.643	-97.12
4052.112	-100.12
4054.58	-107.12
4057.046	-98.12
4059.51	-106.12
4061.972	-103.12
4064.432	-97.12
4066.891	-104.12
4069.348	-102.12
4071.803	-101.12
4074.256	-100.12
4076.708	-105.12
4079.158	-100.12
4081.606	-104.12
4084.052	-102.12
4086.497	-103.12
4088.939	-104.12
4091.38	-101.12
4093.819	-103.12
4096.257	-102.12
4098.693	-106.12
4101.127	-105.12
4103.559	-108.12
4105.989	43.88
4108.418	41.88
4110.845	38.88
4113.27	27.88
4115.694	28.88
4118.115	23.88
4120.535	-101.12
4122.954	-102.12
4125.37	-101.12
4127.785	-99.12
4130.198	-100.12
4132.609	-103.12
4135.019	-104.12
4137.427	-104.12
4139.833	-103.12
4142.237	-108.12