File: Data/Raman/2017-08-29 - Alluminum 2/Aug 29 2017 - Aluminum 2/EC 12 2_RamanShift_3.txt
Data from EC 12 2_RamanShift_3.txt Node

Date: Tue Aug 29 12:16:07 IDT 2017
User: aro
Spectrometer: QEPB0276
Trigger mode: 0
Integration Time (sec): 3.000000E1
Scans to average: 1
Electric dark correction enabled: true
Nonlinearity correction enabled: false
Boxcar width: 0
XAxis mode: Raman Shifts
Number of Pixels in Spectrum: 1044
>>>>>Begin Spectral Data<<<<<
160.701	38.25
166.742	45.25
172.777	83.25
178.805	191.25
184.826	481.25
190.841	953.25
196.849	1520.25
202.85	1959.25
208.845	2130.25
214.833	2151.25
220.815	2173.25
226.789	2232.25
232.758	2305.25
238.719	2355.25
244.674	2390.25
250.623	2438.25
256.565	2479.25
262.5	2511.25
268.429	2551.25
274.351	2607.25
280.267	2646.25
286.176	2696.25
292.079	2736.25
297.975	2782.25
303.865	2810.25
309.748	2869.25
315.625	2856.25
321.495	2879.25
327.359	2913.25
333.217	2946.25
339.068	2978.25
344.912	3012.25
350.751	3024.25
356.583	3068.25
362.408	3092.25
368.227	3145.25
374.04	3284.25
379.847	3452.25
385.647	3552.25
391.44	3453.25
397.228	3323.25
403.009	3355.25
408.784	3593.25
414.553	4164.25
420.315	4866.25
426.071	4895.25
431.821	4193.25
437.565	3570.25
443.302	3406.25
449.033	3296.25
454.758	3249.25
460.477	3202.25
466.189	3136.25
471.896	3076.25
477.596	3034.25
483.29	3013.25
488.978	3011.25
494.66	2944.25
500.335	2823.25
506.005	2622.25
511.668	2379.25
517.325	2174.25
522.977	2000.25
528.622	1882.25
534.261	1815.25
539.894	1737.25
545.521	1685.25
551.141	1638.25
556.756	1628.25
562.365	1604.25
567.968	1591.25
573.565	1594.25
579.155	1601.25
584.74	1585.25
590.319	1567.25
595.892	1543.25
601.459	1580.25
607.02	1565.25
612.575	1548.25
618.124	1525.25
623.667	1489.25
629.204	1480.25
634.735	1520.25
640.261	1675.25
645.781	1858.25
651.294	1976.25
656.802	1784.25
662.304	1538.25
667.8	1405.25
673.29	1366.25
678.775	1331.25
684.254	1318.25
689.726	1306.25
695.193	1307.25
700.655	1282.25
706.11	1286.25
711.56	1265.25
717.004	1261.25
722.442	1269.25
727.874	1264.25
733.301	1284.25
738.722	1296.25
744.137	1355.25
749.547	1409.25
754.951	1425.25
760.349	1413.25
765.741	1359.25
771.128	1352.25
776.509	1371.25
781.885	1423.25
787.254	1439.25
792.618	1466.25
797.977	1450.25
803.33	1453.25
808.677	1439.25
814.019	1431.25
819.355	1394.25
824.686	1389.25
830.011	1354.25
835.33	1352.25
840.644	1332.25
845.952	1307.25
851.255	1266.25
856.552	1264.25
861.844	1207.25
867.13	1207.25
872.41	1187.25
877.686	1162.25
882.955	1148.25
888.219	1149.25
893.478	1124.25
898.731	1117.25
903.979	1100.25
909.221	1094.25
914.458	1080.25
919.69	1090.25
924.916	1091.25
930.136	1089.25
935.351	1088.25
940.561	1078.25
945.766	1090.25
950.965	1095.25
956.158	1087.25
961.347	1060.25
966.529	1051.25
971.707	1057.25
976.879	1034.25
982.046	1021.25
987.208	1018.25
992.364	1041.25
997.515	1028.25
1002.66	1022.25
1007.801	1048.25
1012.936	1064.25
1018.066	1051.25
1023.19	1085.25
1028.309	1078.25
1033.423	1102.25
1038.532	1094.25
1043.636	1098.25
1048.734	1098.25
1053.827	1102.25
1058.915	1081.25
1063.998	1083.25
1069.075	1094.25
1074.147	1077.25
1079.214	1082.25
1084.276	1077.25
1089.333	1068.25
1094.385	1076.25
1099.431	1062.25
1104.472	1043.25
1109.509	1044.25
1114.54	1018.25
1119.565	1003.25
1124.586	983.25
1129.602	969.25
1134.613	976.25
1139.618	960.25
1144.619	960.25
1149.614	968.25
1154.604	976.25
1159.589	984.25
1164.57	986.25
1169.545	1001.25
1174.515	987.25
1179.48	985.25
1184.44	992.25
1189.395	981.25
1194.345	980.25
1199.29	972.25
1204.23	973.25
1209.165	978.25
1214.095	979.25
1219.021	991.25
1223.941	994.25
1228.856	1009.25
1233.766	989.25
1238.672	991.25
1243.572	992.25
1248.467	955.25
1253.358	962.25
1258.244	930.25
1263.124	911.25
1268	892.25
1272.871	879.25
1277.737	880.25
1282.599	866.25
1287.455	859.25
1292.306	867.25
1297.153	887.25
1301.995	869.25
1306.832	884.25
1311.664	878.25
1316.491	878.25
1321.314	854.25
1326.132	858.25
1330.945	844.25
1335.753	845.25
1340.556	816.25
1345.354	802.25
1350.148	793.25
1354.937	794.25
1359.722	796.25
1364.501	796.25
1369.276	784.25
1374.046	802.25
1378.811	793.25
1383.572	805.25
1388.327	794.25
1393.079	786.25
1397.825	781.25
1402.567	762.25
1407.304	750.25
1412.036	746.25
1416.764	734.25
1421.487	735.25
1426.205	742.25
1430.919	733.25
1435.628	754.25
1440.333	749.25
1445.032	759.25
1449.727	759.25
1454.418	758.25
1459.104	753.25
1463.785	733.25
1468.462	733.25
1473.134	739.25
1477.802	715.25
1482.465	722.25
1487.123	714.25
1491.777	714.25
1496.426	713.25
1501.071	729.25
1505.711	742.25
1510.347	741.25
1514.978	769.25
1519.604	755.25
1524.226	755.25
1528.844	749.25
1533.457	736.25
1538.065	715.25
1542.669	724.25
1547.269	698.25
1551.864	701.25
1556.454	704.25
1561.041	705.25
1565.622	702.25
1570.199	676.25
1574.772	671.25
1579.34	678.25
1583.904	683.25
1588.464	676.25
1593.019	662.25
1597.569	661.25
1602.115	645.25
1606.657	636.25
1611.195	640.25
1615.728	619.25
1620.256	620.25
1624.78	615.25
1629.3	618.25
1633.816	619.25
1638.327	609.25
1642.834	622.25
1647.336	630.25
1651.834	632.25
1656.328	632.25
1660.817	639.25
1665.302	619.25
1669.783	628.25
1674.259	632.25
1678.732	615.25
1683.199	614.25
1687.663	605.25
1692.122	608.25
1696.577	597.25
1701.028	595.25
1705.474	594.25
1709.917	600.25
1714.355	604.25
1718.788	600.25
1723.218	595.25
1727.643	578.25
1732.064	578.25
1736.481	554.25
1740.893	553.25
1745.301	540.25
1749.705	526.25
1754.105	508.25
1758.501	504.25
1762.893	496.25
1767.28	483.25
1771.663	485.25
1776.042	482.25
1780.417	491.25
1784.787	485.25
1789.154	492.25
1793.516	491.25
1797.874	500.25
1802.228	497.25
1806.578	505.25
1810.924	500.25
1815.266	491.25
1819.603	475.25
1823.937	467.25
1828.266	467.25
1832.591	453.25
1836.913	467.25
1841.23	452.25
1845.543	435.25
1849.852	453.25
1854.156	439.25
1858.457	436.25
1862.754	442.25
1867.047	448.25
1871.335	454.25
1875.62	446.25
1879.9	444.25
1884.177	444.25
1888.449	449.25
1892.718	436.25
1896.982	438.25
1901.243	448.25
1905.499	432.25
1909.752	440.25
1914	442.25
1918.245	443.25
1922.485	442.25
1926.722	449.25
1930.954	458.25
1935.183	454.25
1939.408	462.25
1943.628	459.25
1947.845	460.25
1952.058	461.25
1956.267	451.25
1960.472	431.25
1964.673	426.25
1968.87	405.25
1973.063	393.25
1977.252	402.25
1981.438	393.25
1985.619	377.25
1989.797	366.25
1993.971	375.25
1998.14	378.25
2002.306	366.25
2006.469	369.25
2010.627	374.25
2014.781	362.25
2018.932	362.25
2023.078	354.25
2027.221	362.25
2031.36	356.25
2035.495	345.25
2039.627	341.25
2043.754	334.25
2047.878	339.25
2051.998	333.25
2056.114	332.25
2060.226	341.25
2064.334	334.25
2068.439	346.25
2072.54	341.25
2076.637	345.25
2080.73	345.25
2084.82	346.25
2088.906	354.25
2092.988	352.25
2097.066	361.25
2101.14	349.25
2105.211	337.25
2109.278	344.25
2113.342	334.25
2117.401	326.25
2121.457	332.25
2125.509	317.25
2129.558	317.25
2133.602	312.25
2137.643	312.25
2141.681	310.25
2145.714	302.25
2149.744	301.25
2153.77	303.25
2157.793	299.25
2161.812	283.25
2165.827	292.25
2169.838	284.25
2173.846	283.25
2177.851	274.25
2181.851	273.25
2185.848	265.25
2189.841	264.25
2193.831	258.25
2197.817	270.25
2201.799	263.25
2205.778	267.25
2209.753	251.25
2213.725	263.25
2217.693	257.25
2221.657	253.25
2225.618	268.25
2229.575	252.25
2233.529	254.25
2237.479	259.25
2241.425	244.25
2245.368	253.25
2249.307	252.25
2253.243	250.25
2257.175	237.25
2261.104	241.25
2265.029	239.25
2268.95	231.25
2272.868	228.25
2276.783	222.25
2280.694	220.25
2284.601	226.25
2288.505	220.25
2292.405	215.25
2296.302	206.25
2300.195	208.25
2304.085	211.25
2307.971	201.25
2311.854	208.25
2315.734	208.25
2319.609	201.25
2323.482	200.25
2327.351	205.25
2331.216	234.25
2335.078	236.25
2338.937	213.25
2342.792	197.25
2346.643	185.25
2350.492	193.25
2354.336	195.25
2358.178	186.25
2362.015	193.25
2365.85	189.25
2369.681	184.25
2373.508	195.25
2377.333	190.25
2381.153	194.25
2384.971	189.25
2388.785	184.25
2392.595	187.25
2396.402	185.25
2400.206	184.25
2404.007	176.25
2407.804	179.25
2411.597	178.25
2415.388	183.25
2419.174	179.25
2422.958	173.25
2426.738	181.25
2430.515	174.25
2434.289	174.25
2438.059	167.25
2441.825	162.25
2445.589	164.25
2449.349	163.25
2453.106	162.25
2456.859	158.25
2460.61	160.25
2464.356	149.25
2468.1	157.25
2471.84	151.25
2475.577	154.25
2479.311	149.25
2483.041	148.25
2486.768	151.25
2490.492	144.25
2494.213	136.25
2497.93	149.25
2501.644	143.25
2505.355	150.25
2509.062	144.25
2512.766	144.25
2516.467	139.25
2520.165	145.25
2523.859	139.25
2527.551	140.25
2531.239	136.25
2534.923	139.25
2538.605	140.25
2542.283	135.25
2545.958	142.25
2549.63	139.25
2553.299	139.25
2556.964	142.25
2560.626	137.25
2564.285	138.25
2567.941	137.25
2571.594	137.25
2575.243	127.25
2578.89	135.25
2582.533	137.25
2586.173	127.25
2589.809	125.25
2593.443	128.25
2597.073	122.25
2600.701	128.25
2604.325	120.25
2607.946	116.25
2611.564	118.25
2615.178	124.25
2618.79	115.25
2622.398	108.25
2626.004	104.25
2629.606	110.25
2633.205	112.25
2636.801	111.25
2640.394	104.25
2643.983	93.25
2647.57	96.25
2651.153	95.25
2654.734	99.25
2658.311	94.25
2661.885	84.25
2665.456	96.25
2669.025	82.25
2672.589	86.25
2676.151	84.25
2679.71	74.25
2683.266	86.25
2686.819	78.25
2690.368	74.25
2693.915	72.25
2697.458	70.25
2700.999	67.25
2704.536	60.25
2708.071	68.25
2711.602	61.25
2715.13	60.25
2718.656	60.25
2722.178	57.25
2725.697	53.25
2729.214	63.25
2732.727	67.25
2736.237	61.25
2739.744	58.25
2743.249	63.25
2746.75	58.25
2750.248	57.25
2753.743	62.25
2757.236	60.25
2760.725	63.25
2764.211	48.25
2767.695	64.25
2771.175	55.25
2774.652	57.25
2778.127	61.25
2781.598	52.25
2785.067	43.25
2788.532	57.25
2791.995	50.25
2795.455	49.25
2798.911	55.25
2802.365	51.25
2805.816	58.25
2809.264	47.25
2812.709	49.25
2816.151	45.25
2819.59	53.25
2823.026	46.25
2826.46	47.25
2829.89	48.25
2833.318	46.25
2836.742	51.25
2840.164	42.25
2843.583	47.25
2846.999	52.25
2850.412	41.25
2853.822	38.25
2857.229	43.25
2860.634	43.25
2864.035	38.25
2867.434	39.25
2870.83	41.25
2874.223	40.25
2877.613	36.25
2881	32.25
2884.385	21.25
2887.766	25.25
2891.145	27.25
2894.521	25.25
2897.894	24.25
2901.264	28.25
2904.631	18.25
2907.996	18.25
2911.358	20.25
2914.717	16.25
2918.073	10.25
2921.426	14.25
2924.777	7.25
2928.124	13.25
2931.469	9.25
2934.811	13.25
2938.15	6.25
2941.487	8.25
2944.821	6.25
2948.152	0.25
2951.48	-2.75
2954.805	7.25
2958.128	-3.75
2961.447	1.25
2964.765	0.25
2968.079	2.25
2971.39	-3.75
2974.699	-0.75
2978.005	1.25
2981.308	-4.75
2984.609	-4.75
2987.907	7.25
2991.202	-3.75
2994.494	3.25
2997.784	4.25
3001.07	0.25
3004.355	-4.75
3007.636	-6.75
3010.915	-4.75
3014.191	-6.75
3017.464	-3.75
3020.734	-5.75
3024.002	-17.75
3027.267	-8.75
3030.53	-14.75
3033.789	-9.75
3037.046	-11.75
3040.301	-18.75
3043.552	-15.75
3046.801	-16.75
3050.048	-21.75
3053.291	-19.75
3056.532	-22.75
3059.771	-15.75
3063.006	-25.75
3066.239	-22.75
3069.469	-12.75
3072.697	-26.75
3075.922	-24.75
3079.144	-25.75
3082.364	-27.75
3085.581	-29.75
3088.795	-27.75
3092.007	-30.75
3095.216	-31.75
3098.423	-25.75
3101.627	-24.75
3104.828	-23.75
3108.026	-32.75
3111.222	-32.75
3114.416	-26.75
3117.607	-29.75
3120.795	-26.75
3123.98	-31.75
3127.163	-30.75
3130.344	-27.75
3133.521	-33.75
3136.696	-33.75
3139.869	-29.75
3143.039	-37.75
3146.206	-30.75
3149.371	-37.75
3152.533	-30.75
3155.693	-32.75
3158.85	-38.75
3162.005	-38.75
3165.157	-42.75
3168.306	-34.75
3171.453	-39.75
3174.597	-35.75
3177.739	-37.75
3180.878	-45.75
3184.014	-47.75
3187.149	-40.75
3190.28	-42.75
3193.409	-43.75
3196.536	-53.75
3199.659	-47.75
3202.781	-48.75
3205.9	-50.75
3209.016	-57.75
3212.13	-51.75
3215.241	-50.75
3218.35	-49.75
3221.456	-46.75
3224.56	-46.75
3227.661	-49.75
3230.76	-51.75
3233.856	-57.75
3236.95	-57.75
3240.041	-48.75
3243.13	-54.75
3246.216	-55.75
3249.3	-50.75
3252.382	-49.75
3255.46	-53.75
3258.537	-28.75
3261.611	-52.75
3264.682	-51.75
3267.751	-45.75
3270.818	-55.75
3273.882	-56.75
3276.943	-55.75
3280.002	-48.75
3283.059	-65.75
3286.113	-56.75
3289.165	-57.75
3292.214	-60.75
3295.261	-54.75
3298.306	-61.75
3301.348	-59.75
3304.387	-61.75
3307.425	-61.75
3310.459	-64.75
3313.492	-64.75
3316.521	-65.75
3319.549	-62.75
3322.574	-69.75
3325.597	-71.75
3328.617	-69.75
3331.635	-65.75
3334.65	-67.75
3337.663	-71.75
3340.674	-66.75
3343.682	-67.75
3346.688	-70.75
3349.691	-67.75
3352.692	-67.75
3355.691	-66.75
3358.687	-69.75
3361.681	-64.75
3364.673	-71.75
3367.662	-67.75
3370.649	-69.75
3373.633	-59.75
3376.615	-71.75
3379.595	-67.75
3382.572	-66.75
3385.547	-68.75
3388.52	-61.75
3391.49	-64.75
3394.458	-68.75
3397.424	-61.75
3400.387	-67.75
3403.348	-68.75
3406.307	-65.75
3409.263	-70.75
3412.217	-68.75
3415.168	-68.75
3418.118	-67.75
3421.065	-63.75
3424.009	-65.75
3426.951	-71.75
3429.891	-68.75
3432.829	-64.75
3435.764	-71.75
3438.697	-69.75
3441.628	-69.75
3444.557	-69.75
3447.483	-73.75
3450.407	-73.75
3453.328	-68.75
3456.247	-74.75
3459.164	-69.75
3462.079	-72.75
3464.991	-73.75
3467.902	-73.75
3470.809	-74.75
3473.715	-75.75
3476.618	-73.75
3479.519	-67.75
3482.418	-76.75
3485.315	-74.75
3488.209	-78.75
3491.101	-70.75
3493.99	-70.75
3496.878	-75.75
3499.763	-82.75
3502.646	-76.75
3505.527	-82.75
3508.405	-75.75
3511.281	-77.75
3514.155	-72.75
3517.027	-71.75
3519.897	-72.75
3522.764	-74.75
3525.629	-82.75
3528.492	-74.75
3531.352	-79.75
3534.211	-74.75
3537.067	-78.75
3539.921	-73.75
3542.773	-78.75
3545.622	-78.75
3548.469	-79.75
3551.315	-74.75
3554.157	-77.75
3556.998	-81.75
3559.837	-78.75
3562.673	-74.75
3565.507	-83.75
3568.339	-71.75
3571.169	-79.75
3573.996	-78.75
3576.822	-72.75
3579.645	-84.75
3582.466	-81.75
3585.285	-81.75
3588.101	-81.75
3590.916	-87.75
3593.728	-74.75
3596.538	-88.75
3599.346	-82.75
3602.152	-81.75
3604.956	-79.75
3607.757	-86.75
3610.556	-81.75
3613.354	-82.75
3616.149	-82.75
3618.942	-84.75
3621.732	-83.75
3624.521	-75.75
3627.307	-81.75
3630.092	-80.75
3632.874	-87.75
3635.654	-79.75
3638.432	-75.75
3641.208	-80.75
3643.982	-78.75
3646.753	-81.75
3649.523	-82.75
3652.29	-86.75
3655.055	-80.75
3657.818	-79.75
3660.579	-76.75
3663.338	-81.75
3666.095	-81.75
3668.849	-83.75
3671.602	-80.75
3674.352	-85.75
3677.101	-80.75
3679.847	-83.75
3682.591	-78.75
3685.333	-76.75
3688.073	-83.75
3690.811	-79.75
3693.547	-77.75
3696.281	-81.75
3699.013	-81.75
3701.742	-83.75
3704.47	-87.75
3707.195	-78.75
3709.919	-78.75
3712.64	-85.75
3715.359	-83.75
3718.076	-78.75
3720.792	-87.75
3723.505	-79.75
3726.216	-81.75
3728.925	-82.75
3731.632	-84.75
3734.336	-84.75
3737.039	-85.75
3739.74	-79.75
3742.439	-79.75
3745.136	-80.75
3747.83	-81.75
3750.523	-83.75
3753.213	-100.75
3755.902	-89.75
3758.589	-84.75
3761.273	-96.75
3763.956	-84.75
3766.636	-84.75
3769.315	-87.75
3771.991	-85.75
3774.665	-84.75
3777.338	-84.75
3780.008	-95.75
3782.677	-84.75
3785.343	-92.75
3788.007	-94.75
3790.67	-88.75
3793.33	-88.75
3795.989	-84.75
3798.645	-90.75
3801.299	-85.75
3803.952	-89.75
3806.602	-91.75
3809.251	-90.75
3811.897	-89.75
3814.542	-90.75
3817.184	-83.75
3819.825	-86.75
3822.463	-85.75
3825.1	-87.75
3827.735	-88.75
3830.367	-89.75
3832.998	-80.75
3835.627	-77.75
3838.253	-83.75
3840.878	-84.75
3843.501	-84.75
3846.122	-85.75
3848.741	-86.75
3851.358	-84.75
3853.973	-79.75
3856.586	-87.75
3859.197	-79.75
3861.806	-82.75
3864.414	-76.75
3867.019	-77.75
3869.622	-75.75
3872.224	-55.75
3874.823	-43.75
3877.421	-13.75
3880.016	15.25
3882.61	54.25
3885.202	76.25
3887.792	34.25
3890.38	-13.75
3892.966	-52.75
3895.55	-65.75
3898.132	-78.75
3900.713	-84.75
3903.291	-88.75
3905.868	-87.75
3908.442	-83.75
3911.015	-88.75
3913.586	-85.75
3916.155	-82.75
3918.722	-85.75
3921.287	-88.75
3923.85	-89.75
3926.411	-85.75
3928.971	-87.75
3931.528	-84.75
3934.084	-90.75
3936.638	-90.75
3939.19	-89.75
3941.74	-88.75
3944.288	-95.75
3946.834	-81.75
3949.378	-91.75
3951.921	-84.75
3954.462	-87.75
3957	-88.75
3959.537	-81.75
3962.072	-81.75
3964.606	-87.75
3967.137	-84.75
3969.667	-82.75
3972.194	-83.75
3974.72	-86.75
3977.244	-86.75
3979.766	-88.75
3982.286	-81.75
3984.805	-83.75
3987.321	-82.75
3989.836	-79.75
3992.349	-80.75
3994.86	-85.75
3997.369	-85.75
3999.877	-81.75
4002.382	-80.75
4004.886	-76.75
4007.388	-75.75
4009.888	-81.75
4012.386	-83.75
4014.883	-83.75
4017.377	-77.75
4019.87	-79.75
4022.361	-86.75
4024.85	-82.75
4027.338	-80.75
4029.823	-82.75
4032.307	-82.75
4034.789	-86.75
4037.269	-83.75
4039.747	-85.75
4042.224	-86.75
4044.699	-82.75
4047.172	-85.75
4049.643	-82.75
4052.112	-82.75
4054.58	-88.75
4057.046	-82.75
4059.51	-86.75
4061.972	-84.75
4064.432	-85.75
4066.891	-87.75
4069.348	-80.75
4071.803	-84.75
4074.256	-78.75
4076.708	-87.75
4079.158	-89.75
4081.606	-83.75
4084.052	-83.75
4086.497	-89.75
4088.939	-94.75
4091.38	-84.75
4093.819	-85.75
4096.257	-89.75
4098.693	-88.75
4101.127	-94.75
4103.559	-92.75
4105.989	50.25
4108.418	45.25
4110.845	40.25
4113.27	30.25
4115.694	28.25
4118.115	27.25
4120.535	-88.75
4122.954	-81.75
4125.37	-90.75
4127.785	-86.75
4130.198	-91.75
4132.609	-91.75
4135.019	-91.75
4137.427	-85.75
4139.833	-86.75
4142.237	-93.75