File: Data/Raman/2017-08-29 - Alluminum 2/Aug 29 2017 - Aluminum 2/EC 110 1_RamanShift_1.txt
Data from EC 110 1_RamanShift_1.txt Node

Date: Tue Aug 29 12:08:07 IDT 2017
User: aro
Spectrometer: QEPB0276
Trigger mode: 0
Integration Time (sec): 3.000000E1
Scans to average: 1
Electric dark correction enabled: true
Nonlinearity correction enabled: false
Boxcar width: 0
XAxis mode: Raman Shifts
Number of Pixels in Spectrum: 1044
>>>>>Begin Spectral Data<<<<<
160.701	40.38
166.742	54.38
172.777	88.38
178.805	212.38
184.826	505.38
190.841	986.38
196.849	1568.38
202.85	1985.38
208.845	2154.38
214.833	2167.38
220.815	2191.38
226.789	2246.38
232.758	2316.38
238.719	2370.38
244.674	2413.38
250.623	2468.38
256.565	2493.38
262.5	2546.38
268.429	2563.38
274.351	2641.38
280.267	2676.38
286.176	2745.38
292.079	2775.38
297.975	2825.38
303.865	2887.38
309.748	2933.38
315.625	2968.38
321.495	2993.38
327.359	3030.38
333.217	3076.38
339.068	3106.38
344.912	3150.38
350.751	3171.38
356.583	3206.38
362.408	3257.38
368.227	3337.38
374.04	3512.38
379.847	3732.38
385.647	3900.38
391.44	3756.38
397.228	3540.38
403.009	3607.38
408.784	3977.38
414.553	4726.38
420.315	5669.38
426.071	5722.38
431.821	4788.38
437.565	3961.38
443.302	3681.38
449.033	3536.38
454.758	3441.38
460.477	3395.38
466.189	3330.38
471.896	3224.38
477.596	3186.38
483.29	3157.38
488.978	3161.38
494.66	3084.38
500.335	2943.38
506.005	2651.38
511.668	2375.38
517.325	2083.38
522.977	1883.38
528.622	1733.38
534.261	1594.38
539.894	1526.38
545.521	1460.38
551.141	1419.38
556.756	1383.38
562.365	1357.38
567.968	1344.38
573.565	1332.38
579.155	1341.38
584.74	1338.38
590.319	1340.38
595.892	1299.38
601.459	1301.38
607.02	1320.38
612.575	1293.38
618.124	1267.38
623.667	1225.38
629.204	1224.38
634.735	1284.38
640.261	1498.38
645.781	1777.38
651.294	1903.38
656.802	1677.38
662.304	1345.38
667.8	1153.38
673.29	1079.38
678.775	1064.38
684.254	1036.38
689.726	1031.38
695.193	1004.38
700.655	979.38
706.11	995.38
711.56	987.38
717.004	978.38
722.442	975.38
727.874	991.38
733.301	988.38
738.722	1036.38
744.137	1075.38
749.547	1168.38
754.951	1212.38
760.349	1217.38
765.741	1137.38
771.128	1104.38
776.509	1124.38
781.885	1197.38
787.254	1219.38
792.618	1241.38
797.977	1244.38
803.33	1229.38
808.677	1219.38
814.019	1200.38
819.355	1182.38
824.686	1168.38
830.011	1144.38
835.33	1113.38
840.644	1078.38
845.952	1067.38
851.255	1007.38
856.552	988.38
861.844	940.38
867.13	900.38
872.41	883.38
877.686	864.38
882.955	838.38
888.219	840.38
893.478	830.38
898.731	815.38
903.979	821.38
909.221	803.38
914.458	799.38
919.69	806.38
924.916	798.38
930.136	814.38
935.351	794.38
940.561	789.38
945.766	796.38
950.965	791.38
956.158	781.38
961.347	770.38
966.529	758.38
971.707	763.38
976.879	759.38
982.046	752.38
987.208	754.38
992.364	741.38
997.515	764.38
1002.66	761.38
1007.801	778.38
1012.936	781.38
1018.066	786.38
1023.19	794.38
1028.309	805.38
1033.423	816.38
1038.532	835.38
1043.636	848.38
1048.734	837.38
1053.827	847.38
1058.915	839.38
1063.998	841.38
1069.075	845.38
1074.147	839.38
1079.214	847.38
1084.276	824.38
1089.333	823.38
1094.385	811.38
1099.431	800.38
1104.472	784.38
1109.509	785.38
1114.54	762.38
1119.565	741.38
1124.586	721.38
1129.602	705.38
1134.613	714.38
1139.618	710.38
1144.619	708.38
1149.614	715.38
1154.604	737.38
1159.589	737.38
1164.57	744.38
1169.545	749.38
1174.515	753.38
1179.48	750.38
1184.44	745.38
1189.395	742.38
1194.345	738.38
1199.29	748.38
1204.23	738.38
1209.165	738.38
1214.095	754.38
1219.021	744.38
1223.941	750.38
1228.856	746.38
1233.766	751.38
1238.672	743.38
1243.572	732.38
1248.467	718.38
1253.358	714.38
1258.244	693.38
1263.124	669.38
1268	665.38
1272.871	634.38
1277.737	628.38
1282.599	641.38
1287.455	627.38
1292.306	629.38
1297.153	649.38
1301.995	636.38
1306.832	648.38
1311.664	653.38
1316.491	646.38
1321.314	634.38
1326.132	634.38
1330.945	629.38
1335.753	624.38
1340.556	606.38
1345.354	602.38
1350.148	598.38
1354.937	605.38
1359.722	600.38
1364.501	596.38
1369.276	586.38
1374.046	592.38
1378.811	596.38
1383.572	593.38
1388.327	593.38
1393.079	583.38
1397.825	583.38
1402.567	557.38
1407.304	543.38
1412.036	542.38
1416.764	537.38
1421.487	541.38
1426.205	527.38
1430.919	541.38
1435.628	543.38
1440.333	549.38
1445.032	566.38
1449.727	558.38
1454.418	565.38
1459.104	559.38
1463.785	547.38
1468.462	559.38
1473.134	562.38
1477.802	534.38
1482.465	544.38
1487.123	559.38
1491.777	548.38
1496.426	555.38
1501.071	566.38
1505.711	584.38
1510.347	590.38
1514.978	593.38
1519.604	595.38
1524.226	584.38
1528.844	585.38
1533.457	564.38
1538.065	557.38
1542.669	554.38
1547.269	536.38
1551.864	543.38
1556.454	547.38
1561.041	557.38
1565.622	545.38
1570.199	514.38
1574.772	517.38
1579.34	507.38
1583.904	520.38
1588.464	505.38
1593.019	515.38
1597.569	504.38
1602.115	501.38
1606.657	487.38
1611.195	481.38
1615.728	467.38
1620.256	478.38
1624.78	463.38
1629.3	468.38
1633.816	467.38
1638.327	467.38
1642.834	484.38
1647.336	491.38
1651.834	486.38
1656.328	472.38
1660.817	504.38
1665.302	489.38
1669.783	483.38
1674.259	484.38
1678.732	474.38
1683.199	487.38
1687.663	472.38
1692.122	479.38
1696.577	477.38
1701.028	478.38
1705.474	482.38
1709.917	486.38
1714.355	469.38
1718.788	463.38
1723.218	449.38
1727.643	447.38
1732.064	441.38
1736.481	432.38
1740.893	408.38
1745.301	413.38
1749.705	413.38
1754.105	397.38
1758.501	389.38
1762.893	371.38
1767.28	376.38
1771.663	377.38
1776.042	374.38
1780.417	388.38
1784.787	374.38
1789.154	384.38
1793.516	389.38
1797.874	397.38
1802.228	386.38
1806.578	393.38
1810.924	388.38
1815.266	388.38
1819.603	366.38
1823.937	361.38
1828.266	338.38
1832.591	341.38
1836.913	342.38
1841.23	343.38
1845.543	335.38
1849.852	335.38
1854.156	340.38
1858.457	333.38
1862.754	328.38
1867.047	341.38
1871.335	353.38
1875.62	341.38
1879.9	340.38
1884.177	334.38
1888.449	335.38
1892.718	336.38
1896.982	337.38
1901.243	330.38
1905.499	338.38
1909.752	325.38
1914	339.38
1918.245	354.38
1922.485	353.38
1926.722	345.38
1930.954	355.38
1935.183	349.38
1939.408	362.38
1943.628	361.38
1947.845	348.38
1952.058	342.38
1956.267	339.38
1960.472	329.38
1964.673	317.38
1968.87	315.38
1973.063	309.38
1977.252	299.38
1981.438	294.38
1985.619	293.38
1989.797	285.38
1993.971	281.38
1998.14	273.38
2002.306	284.38
2006.469	277.38
2010.627	286.38
2014.781	268.38
2018.932	267.38
2023.078	272.38
2027.221	272.38
2031.36	255.38
2035.495	264.38
2039.627	256.38
2043.754	257.38
2047.878	253.38
2051.998	252.38
2056.114	256.38
2060.226	254.38
2064.334	267.38
2068.439	262.38
2072.54	263.38
2076.637	273.38
2080.73	267.38
2084.82	266.38
2088.906	267.38
2092.988	272.38
2097.066	269.38
2101.14	258.38
2105.211	256.38
2109.278	249.38
2113.342	256.38
2117.401	240.38
2121.457	244.38
2125.509	239.38
2129.558	242.38
2133.602	232.38
2137.643	216.38
2141.681	228.38
2145.714	216.38
2149.744	220.38
2153.77	224.38
2157.793	209.38
2161.812	215.38
2165.827	210.38
2169.838	201.38
2173.846	210.38
2177.851	197.38
2181.851	197.38
2185.848	194.38
2189.841	195.38
2193.831	186.38
2197.817	191.38
2201.799	192.38
2205.778	190.38
2209.753	185.38
2213.725	189.38
2217.693	184.38
2221.657	195.38
2225.618	189.38
2229.575	190.38
2233.529	199.38
2237.479	185.38
2241.425	192.38
2245.368	189.38
2249.307	176.38
2253.243	177.38
2257.175	169.38
2261.104	170.38
2265.029	173.38
2268.95	166.38
2272.868	160.38
2276.783	160.38
2280.694	157.38
2284.601	162.38
2288.505	157.38
2292.405	163.38
2296.302	149.38
2300.195	150.38
2304.085	143.38
2307.971	147.38
2311.854	138.38
2315.734	145.38
2319.609	150.38
2323.482	137.38
2327.351	152.38
2331.216	179.38
2335.078	185.38
2338.937	157.38
2342.792	132.38
2346.643	128.38
2350.492	127.38
2354.336	123.38
2358.178	126.38
2362.015	130.38
2365.85	122.38
2369.681	127.38
2373.508	128.38
2377.333	124.38
2381.153	125.38
2384.971	114.38
2388.785	116.38
2392.595	119.38
2396.402	119.38
2400.206	113.38
2404.007	113.38
2407.804	114.38
2411.597	116.38
2415.388	120.38
2419.174	114.38
2422.958	112.38
2426.738	116.38
2430.515	109.38
2434.289	121.38
2438.059	108.38
2441.825	103.38
2445.589	106.38
2449.349	96.38
2453.106	97.38
2456.859	108.38
2460.61	94.38
2464.356	100.38
2468.1	94.38
2471.84	98.38
2475.577	97.38
2479.311	94.38
2483.041	91.38
2486.768	98.38
2490.492	91.38
2494.213	89.38
2497.93	89.38
2501.644	98.38
2505.355	89.38
2509.062	93.38
2512.766	91.38
2516.467	91.38
2520.165	94.38
2523.859	82.38
2527.551	80.38
2531.239	90.38
2534.923	86.38
2538.605	86.38
2542.283	81.38
2545.958	81.38
2549.63	90.38
2553.299	90.38
2556.964	86.38
2560.626	77.38
2564.285	76.38
2567.941	78.38
2571.594	79.38
2575.243	73.38
2578.89	85.38
2582.533	70.38
2586.173	81.38
2589.809	78.38
2593.443	72.38
2597.073	74.38
2600.701	77.38
2604.325	72.38
2607.946	65.38
2611.564	67.38
2615.178	66.38
2618.79	63.38
2622.398	62.38
2626.004	57.38
2629.606	55.38
2633.205	58.38
2636.801	61.38
2640.394	54.38
2643.983	52.38
2647.57	53.38
2651.153	42.38
2654.734	44.38
2658.311	50.38
2661.885	36.38
2665.456	47.38
2669.025	43.38
2672.589	45.38
2676.151	42.38
2679.71	32.38
2683.266	42.38
2686.819	33.38
2690.368	39.38
2693.915	30.38
2697.458	33.38
2700.999	34.38
2704.536	33.38
2708.071	25.38
2711.602	22.38
2715.13	26.38
2718.656	23.38
2722.178	29.38
2725.697	22.38
2729.214	25.38
2732.727	32.38
2736.237	27.38
2739.744	25.38
2743.249	34.38
2746.75	23.38
2750.248	31.38
2753.743	27.38
2757.236	27.38
2760.725	28.38
2764.211	25.38
2767.695	27.38
2771.175	28.38
2774.652	24.38
2778.127	28.38
2781.598	21.38
2785.067	16.38
2788.532	19.38
2791.995	18.38
2795.455	19.38
2798.911	12.38
2802.365	9.38
2805.816	21.38
2809.264	6.38
2812.709	11.38
2816.151	12.38
2819.59	17.38
2823.026	16.38
2826.46	11.38
2829.89	8.38
2833.318	6.38
2836.742	13.38
2840.164	10.38
2843.583	8.38
2846.999	12.38
2850.412	3.38
2853.822	3.38
2857.229	9.38
2860.634	10.38
2864.035	6.38
2867.434	6.38
2870.83	7.38
2874.223	3.38
2877.613	-4.62
2881	-7.62
2884.385	-5.62
2887.766	-3.62
2891.145	-2.62
2894.521	-3.62
2897.894	-4.62
2901.264	-11.62
2904.631	-8.62
2907.996	-13.62
2911.358	-5.62
2914.717	-8.62
2918.073	-18.62
2921.426	-16.62
2924.777	-16.62
2928.124	-18.62
2931.469	-18.62
2934.811	-14.62
2938.15	-18.62
2941.487	-18.62
2944.821	-17.62
2948.152	-28.62
2951.48	-17.62
2954.805	-22.62
2958.128	-21.62
2961.447	-24.62
2964.765	-26.62
2968.079	-23.62
2971.39	-24.62
2974.699	-23.62
2978.005	-24.62
2981.308	-28.62
2984.609	-32.62
2987.907	-23.62
2991.202	-28.62
2994.494	-24.62
2997.784	-25.62
3001.07	-32.62
3004.355	-32.62
3007.636	-32.62
3010.915	-33.62
3014.191	-33.62
3017.464	-30.62
3020.734	-34.62
3024.002	-34.62
3027.267	-36.62
3030.53	-43.62
3033.789	-30.62
3037.046	-38.62
3040.301	-40.62
3043.552	-48.62
3046.801	-41.62
3050.048	-50.62
3053.291	-46.62
3056.532	-43.62
3059.771	-36.62
3063.006	-51.62
3066.239	-42.62
3069.469	-46.62
3072.697	-48.62
3075.922	-40.62
3079.144	-44.62
3082.364	-45.62
3085.581	-46.62
3088.795	-47.62
3092.007	-54.62
3095.216	-47.62
3098.423	-49.62
3101.627	-45.62
3104.828	-45.62
3108.026	-50.62
3111.222	-53.62
3114.416	-46.62
3117.607	-45.62
3120.795	-48.62
3123.98	-51.62
3127.163	-49.62
3130.344	-46.62
3133.521	-56.62
3136.696	-51.62
3139.869	-48.62
3143.039	-56.62
3146.206	-53.62
3149.371	-58.62
3152.533	-52.62
3155.693	-56.62
3158.85	-54.62
3162.005	-55.62
3165.157	-57.62
3168.306	-55.62
3171.453	-57.62
3174.597	-57.62
3177.739	-58.62
3180.878	-67.62
3184.014	-65.62
3187.149	-69.62
3190.28	-59.62
3193.409	-62.62
3196.536	-65.62
3199.659	-66.62
3202.781	-64.62
3205.9	-61.62
3209.016	-75.62
3212.13	-68.62
3215.241	-72.62
3218.35	-68.62
3221.456	-62.62
3224.56	-68.62
3227.661	-65.62
3230.76	-66.62
3233.856	-72.62
3236.95	-67.62
3240.041	-69.62
3243.13	-74.62
3246.216	-69.62
3249.3	-67.62
3252.382	-71.62
3255.46	-65.62
3258.537	-38.62
3261.611	-67.62
3264.682	-67.62
3267.751	-63.62
3270.818	-71.62
3273.882	-65.62
3276.943	-72.62
3280.002	-68.62
3283.059	-70.62
3286.113	-73.62
3289.165	-71.62
3292.214	-72.62
3295.261	-67.62
3298.306	-72.62
3301.348	-71.62
3304.387	-71.62
3307.425	-73.62
3310.459	-78.62
3313.492	-73.62
3316.521	-82.62
3319.549	-76.62
3322.574	-79.62
3325.597	-78.62
3328.617	-79.62
3331.635	-83.62
3334.65	-80.62
3337.663	-83.62
3340.674	-78.62
3343.682	-80.62
3346.688	-81.62
3349.691	-75.62
3352.692	-81.62
3355.691	-81.62
3358.687	-77.62
3361.681	-81.62
3364.673	-83.62
3367.662	-78.62
3370.649	-79.62
3373.633	-75.62
3376.615	-80.62
3379.595	-83.62
3382.572	-77.62
3385.547	-78.62
3388.52	-74.62
3391.49	-77.62
3394.458	-80.62
3397.424	-74.62
3400.387	-75.62
3403.348	-76.62
3406.307	-78.62
3409.263	-85.62
3412.217	-75.62
3415.168	-81.62
3418.118	-76.62
3421.065	-83.62
3424.009	-80.62
3426.951	-86.62
3429.891	-76.62
3432.829	-78.62
3435.764	-80.62
3438.697	-79.62
3441.628	-79.62
3444.557	-76.62
3447.483	-84.62
3450.407	-88.62
3453.328	-75.62
3456.247	-83.62
3459.164	-82.62
3462.079	-80.62
3464.991	-86.62
3467.902	-90.62
3470.809	-87.62
3473.715	-88.62
3476.618	-82.62
3479.519	-82.62
3482.418	-88.62
3485.315	-87.62
3488.209	-88.62
3491.101	-87.62
3493.99	-88.62
3496.878	-88.62
3499.763	-87.62
3502.646	-87.62
3505.527	-95.62
3508.405	-92.62
3511.281	-90.62
3514.155	-84.62
3517.027	-89.62
3519.897	-84.62
3522.764	-83.62
3525.629	-88.62
3528.492	-88.62
3531.352	-89.62
3534.211	-91.62
3537.067	-93.62
3539.921	-88.62
3542.773	-90.62
3545.622	-89.62
3548.469	-89.62
3551.315	-85.62
3554.157	-80.62
3556.998	-89.62
3559.837	-87.62
3562.673	-88.62
3565.507	-87.62
3568.339	-87.62
3571.169	-88.62
3573.996	-90.62
3576.822	-86.62
3579.645	-96.62
3582.466	-88.62
3585.285	-84.62
3588.101	-97.62
3590.916	-93.62
3593.728	-87.62
3596.538	-92.62
3599.346	-90.62
3602.152	-89.62
3604.956	-85.62
3607.757	-91.62
3610.556	-91.62
3613.354	-90.62
3616.149	-96.62
3618.942	-91.62
3621.732	-94.62
3624.521	-86.62
3627.307	-89.62
3630.092	-89.62
3632.874	-92.62
3635.654	-92.62
3638.432	-88.62
3641.208	-95.62
3643.982	-92.62
3646.753	-91.62
3649.523	-93.62
3652.29	-95.62
3655.055	-87.62
3657.818	-94.62
3660.579	-91.62
3663.338	-93.62
3666.095	-93.62
3668.849	-93.62
3671.602	-95.62
3674.352	-98.62
3677.101	-93.62
3679.847	-95.62
3682.591	-96.62
3685.333	-93.62
3688.073	-102.62
3690.811	-93.62
3693.547	-94.62
3696.281	-91.62
3699.013	-93.62
3701.742	-97.62
3704.47	-97.62
3707.195	-97.62
3709.919	-96.62
3712.64	-101.62
3715.359	-96.62
3718.076	-89.62
3720.792	-98.62
3723.505	-95.62
3726.216	-96.62
3728.925	-96.62
3731.632	-96.62
3734.336	-97.62
3737.039	-101.62
3739.74	-94.62
3742.439	-92.62
3745.136	-99.62
3747.83	-101.62
3750.523	-97.62
3753.213	-119.62
3755.902	-97.62
3758.589	-96.62
3761.273	-100.62
3763.956	-96.62
3766.636	-91.62
3769.315	-97.62
3771.991	-99.62
3774.665	-91.62
3777.338	-91.62
3780.008	-103.62
3782.677	-95.62
3785.343	-103.62
3788.007	-98.62
3790.67	-94.62
3793.33	-95.62
3795.989	-89.62
3798.645	-102.62
3801.299	-94.62
3803.952	-93.62
3806.602	-96.62
3809.251	-96.62
3811.897	-93.62
3814.542	-93.62
3817.184	-88.62
3819.825	-96.62
3822.463	-93.62
3825.1	-103.62
3827.735	-91.62
3830.367	-96.62
3832.998	-88.62
3835.627	-93.62
3838.253	-94.62
3840.878	-94.62
3843.501	-91.62
3846.122	-94.62
3848.741	-97.62
3851.358	-93.62
3853.973	-85.62
3856.586	-100.62
3859.197	-92.62
3861.806	-86.62
3864.414	-92.62
3867.019	-86.62
3869.622	-83.62
3872.224	-68.62
3874.823	-51.62
3877.421	-15.62
3880.016	20.38
3882.61	77.38
3885.202	96.38
3887.792	68.38
3890.38	2.38
3892.966	-49.62
3895.55	-71.62
3898.132	-89.62
3900.713	-95.62
3903.291	-97.62
3905.868	-96.62
3908.442	-93.62
3911.015	-95.62
3913.586	-98.62
3916.155	-97.62
3918.722	-99.62
3921.287	-99.62
3923.85	-104.62
3926.411	-97.62
3928.971	-96.62
3931.528	-90.62
3934.084	-103.62
3936.638	-102.62
3939.19	-103.62
3941.74	-95.62
3944.288	-98.62
3946.834	-93.62
3949.378	-102.62
3951.921	-97.62
3954.462	-94.62
3957	-92.62
3959.537	-88.62
3962.072	-86.62
3964.606	-96.62
3967.137	-96.62
3969.667	-93.62
3972.194	-95.62
3974.72	-94.62
3977.244	-91.62
3979.766	-97.62
3982.286	-92.62
3984.805	-94.62
3987.321	-94.62
3989.836	-94.62
3992.349	-92.62
3994.86	-91.62
3997.369	-95.62
3999.877	-93.62
4002.382	-91.62
4004.886	-94.62
4007.388	-91.62
4009.888	-93.62
4012.386	-92.62
4014.883	-96.62
4017.377	-89.62
4019.87	-99.62
4022.361	-97.62
4024.85	-101.62
4027.338	-89.62
4029.823	-98.62
4032.307	-95.62
4034.789	-95.62
4037.269	-97.62
4039.747	-95.62
4042.224	-93.62
4044.699	-94.62
4047.172	-94.62
4049.643	-92.62
4052.112	-94.62
4054.58	-96.62
4057.046	-92.62
4059.51	-101.62
4061.972	-96.62
4064.432	-89.62
4066.891	-96.62
4069.348	-91.62
4071.803	-93.62
4074.256	-92.62
4076.708	-95.62
4079.158	-96.62
4081.606	-90.62
4084.052	-94.62
4086.497	-94.62
4088.939	-97.62
4091.38	-96.62
4093.819	-95.62
4096.257	-99.62
4098.693	-95.62
4101.127	-97.62
4103.559	-98.62
4105.989	56.38
4108.418	50.38
4110.845	45.38
4113.27	37.38
4115.694	38.38
4118.115	38.38
4120.535	-92.62
4122.954	-90.62
4125.37	-95.62
4127.785	-94.62
4130.198	-94.62
4132.609	-99.62
4135.019	-99.62
4137.427	-95.62
4139.833	-97.62
4142.237	-102.62