File: Data/Raman/2017-08-29 - Alluminum 2/Aug 29 2017 - Aluminum 2/EC 11 5_RamanShift_1.txt
Data from EC 11 5_RamanShift_1.txt Node

Date: Tue Aug 29 12:55:37 IDT 2017
User: aro
Spectrometer: QEPB0276
Trigger mode: 0
Integration Time (sec): 3.000000E1
Scans to average: 1
Electric dark correction enabled: true
Nonlinearity correction enabled: false
Boxcar width: 0
XAxis mode: Raman Shifts
Number of Pixels in Spectrum: 1044
>>>>>Begin Spectral Data<<<<<
160.701	8.88
166.742	44.88
172.777	165.88
178.805	524.88
184.826	1358.88
190.841	2777.88
196.849	4438.88
202.85	5671.88
208.845	6181.88
214.833	6294.88
220.815	6430.88
226.789	6580.88
232.758	6785.88
238.719	6910.88
244.674	7035.88
250.623	7169.88
256.565	7170.88
262.5	7222.88
268.429	7335.88
274.351	7407.88
280.267	7504.88
286.176	7593.88
292.079	7672.88
297.975	7730.88
303.865	7764.88
309.748	7838.88
315.625	7897.88
321.495	7874.88
327.359	7907.88
333.217	7916.88
339.068	7930.88
344.912	8000.88
350.751	7997.88
356.583	7989.88
362.408	7967.88
368.227	7994.88
374.04	8077.88
379.847	8248.88
385.647	8354.88
391.44	8248.88
397.228	8146.88
403.009	8184.88
408.784	8392.88
414.553	8848.88
420.315	9396.88
426.071	9408.88
431.821	8846.88
437.565	8346.88
443.302	8123.88
449.033	8015.88
454.758	7970.88
460.477	7944.88
466.189	7832.88
471.896	7782.88
477.596	7758.88
483.29	7698.88
488.978	7684.88
494.66	7631.88
500.335	7526.88
506.005	7328.88
511.668	7121.88
517.325	6927.88
522.977	6738.88
528.622	6600.88
534.261	6567.88
539.894	6510.88
545.521	6431.88
551.141	6383.88
556.756	6348.88
562.365	6325.88
567.968	6283.88
573.565	6283.88
579.155	6255.88
584.74	6260.88
590.319	6189.88
595.892	6153.88
601.459	6168.88
607.02	6127.88
612.575	6070.88
618.124	6015.88
623.667	5942.88
629.204	5926.88
634.735	5964.88
640.261	6062.88
645.781	6217.88
651.294	6258.88
656.802	6164.88
662.304	5909.88
667.8	5787.88
673.29	5762.88
678.775	5705.88
684.254	5677.88
689.726	5651.88
695.193	5602.88
700.655	5571.88
706.11	5550.88
711.56	5522.88
717.004	5507.88
722.442	5461.88
727.874	5452.88
733.301	5423.88
738.722	5421.88
744.137	5465.88
749.547	5504.88
754.951	5475.88
760.349	5508.88
765.741	5456.88
771.128	5407.88
776.509	5442.88
781.885	5453.88
787.254	5461.88
792.618	5425.88
797.977	5418.88
803.33	5390.88
808.677	5365.88
814.019	5331.88
819.355	5278.88
824.686	5231.88
830.011	5206.88
835.33	5185.88
840.644	5210.88
845.952	5162.88
851.255	5184.88
856.552	5125.88
861.844	5117.88
867.13	5088.88
872.41	5074.88
877.686	5024.88
882.955	4964.88
888.219	4936.88
893.478	4917.88
898.731	4852.88
903.979	4822.88
909.221	4811.88
914.458	4826.88
919.69	4800.88
924.916	4793.88
930.136	4815.88
935.351	4791.88
940.561	4812.88
945.766	4775.88
950.965	4767.88
956.158	4750.88
961.347	4699.88
966.529	4639.88
971.707	4573.88
976.879	4538.88
982.046	4496.88
987.208	4468.88
992.364	4484.88
997.515	4519.88
1002.66	4535.88
1007.801	4575.88
1012.936	4623.88
1018.066	4607.88
1023.19	4660.88
1028.309	4628.88
1033.423	4643.88
1038.532	4603.88
1043.636	4568.88
1048.734	4527.88
1053.827	4517.88
1058.915	4430.88
1063.998	4397.88
1069.075	4389.88
1074.147	4405.88
1079.214	4414.88
1084.276	4386.88
1089.333	4422.88
1094.385	4431.88
1099.431	4464.88
1104.472	4419.88
1109.509	4382.88
1114.54	4347.88
1119.565	4279.88
1124.586	4229.88
1129.602	4177.88
1134.613	4160.88
1139.618	4126.88
1144.619	4131.88
1149.614	4123.88
1154.604	4164.88
1159.589	4158.88
1164.57	4155.88
1169.545	4160.88
1174.515	4175.88
1179.48	4169.88
1184.44	4085.88
1189.395	4070.88
1194.345	4053.88
1199.29	4045.88
1204.23	4031.88
1209.165	4035.88
1214.095	4073.88
1219.021	4075.88
1223.941	4095.88
1228.856	4105.88
1233.766	4126.88
1238.672	4109.88
1243.572	4084.88
1248.467	4049.88
1253.358	4018.88
1258.244	3942.88
1263.124	3854.88
1268	3797.88
1272.871	3779.88
1277.737	3726.88
1282.599	3733.88
1287.455	3737.88
1292.306	3751.88
1297.153	3765.88
1301.995	3785.88
1306.832	3799.88
1311.664	3830.88
1316.491	3817.88
1321.314	3772.88
1326.132	3754.88
1330.945	3687.88
1335.753	3620.88
1340.556	3593.88
1345.354	3547.88
1350.148	3513.88
1354.937	3542.88
1359.722	3545.88
1364.501	3603.88
1369.276	3621.88
1374.046	3679.88
1378.811	3686.88
1383.572	3688.88
1388.327	3680.88
1393.079	3611.88
1397.825	3538.88
1402.567	3436.88
1407.304	3362.88
1412.036	3315.88
1416.764	3295.88
1421.487	3271.88
1426.205	3275.88
1430.919	3277.88
1435.628	3324.88
1440.333	3344.88
1445.032	3352.88
1449.727	3388.88
1454.418	3389.88
1459.104	3413.88
1463.785	3387.88
1468.462	3364.88
1473.134	3376.88
1477.802	3346.88
1482.465	3347.88
1487.123	3371.88
1491.777	3429.88
1496.426	3489.88
1501.071	3530.88
1505.711	3592.88
1510.347	3668.88
1514.978	3679.88
1519.604	3684.88
1524.226	3724.88
1528.844	3659.88
1533.457	3582.88
1538.065	3523.88
1542.669	3427.88
1547.269	3386.88
1551.864	3346.88
1556.454	3304.88
1561.041	3242.88
1565.622	3198.88
1570.199	3140.88
1574.772	3142.88
1579.34	3106.88
1583.904	3095.88
1588.464	3084.88
1593.019	3038.88
1597.569	3041.88
1602.115	2965.88
1606.657	2926.88
1611.195	2865.88
1615.728	2856.88
1620.256	2822.88
1624.78	2797.88
1629.3	2802.88
1633.816	2815.88
1638.327	2847.88
1642.834	2892.88
1647.336	2921.88
1651.834	2943.88
1656.328	2978.88
1660.817	3008.88
1665.302	3031.88
1669.783	3014.88
1674.259	3033.88
1678.732	3031.88
1683.199	3008.88
1687.663	2998.88
1692.122	2983.88
1696.577	2991.88
1701.028	3083.88
1705.474	3118.88
1709.917	3141.88
1714.355	3107.88
1718.788	3089.88
1723.218	3055.88
1727.643	2976.88
1732.064	2913.88
1736.481	2860.88
1740.893	2815.88
1745.301	2745.88
1749.705	2687.88
1754.105	2645.88
1758.501	2589.88
1762.893	2539.88
1767.28	2512.88
1771.663	2510.88
1776.042	2507.88
1780.417	2532.88
1784.787	2562.88
1789.154	2615.88
1793.516	2669.88
1797.874	2703.88
1802.228	2706.88
1806.578	2712.88
1810.924	2666.88
1815.266	2608.88
1819.603	2537.88
1823.937	2490.88
1828.266	2427.88
1832.591	2378.88
1836.913	2346.88
1841.23	2325.88
1845.543	2292.88
1849.852	2289.88
1854.156	2305.88
1858.457	2296.88
1862.754	2309.88
1867.047	2321.88
1871.335	2350.88
1875.62	2353.88
1879.9	2358.88
1884.177	2378.88
1888.449	2371.88
1892.718	2370.88
1896.982	2399.88
1901.243	2386.88
1905.499	2394.88
1909.752	2439.88
1914	2459.88
1918.245	2505.88
1922.485	2511.88
1926.722	2545.88
1930.954	2566.88
1935.183	2570.88
1939.408	2590.88
1943.628	2595.88
1947.845	2557.88
1952.058	2507.88
1956.267	2439.88
1960.472	2394.88
1964.673	2310.88
1968.87	2228.88
1973.063	2181.88
1977.252	2135.88
1981.438	2078.88
1985.619	2060.88
1989.797	2011.88
1993.971	1967.88
1998.14	1969.88
2002.306	1932.88
2006.469	1913.88
2010.627	1913.88
2014.781	1885.88
2018.932	1864.88
2023.078	1843.88
2027.221	1823.88
2031.36	1788.88
2035.495	1768.88
2039.627	1756.88
2043.754	1746.88
2047.878	1738.88
2051.998	1743.88
2056.114	1759.88
2060.226	1769.88
2064.334	1806.88
2068.439	1791.88
2072.54	1830.88
2076.637	1835.88
2080.73	1857.88
2084.82	1867.88
2088.906	1882.88
2092.988	1890.88
2097.066	1871.88
2101.14	1843.88
2105.211	1824.88
2109.278	1791.88
2113.342	1776.88
2117.401	1739.88
2121.457	1719.88
2125.509	1684.88
2129.558	1667.88
2133.602	1632.88
2137.643	1608.88
2141.681	1602.88
2145.714	1583.88
2149.744	1548.88
2153.77	1520.88
2157.793	1513.88
2161.812	1477.88
2165.827	1468.88
2169.838	1442.88
2173.846	1408.88
2177.851	1391.88
2181.851	1352.88
2185.848	1342.88
2189.841	1322.88
2193.831	1303.88
2197.817	1279.88
2201.799	1286.88
2205.778	1280.88
2209.753	1269.88
2213.725	1271.88
2217.693	1280.88
2221.657	1286.88
2225.618	1268.88
2229.575	1279.88
2233.529	1247.88
2237.479	1235.88
2241.425	1230.88
2245.368	1204.88
2249.307	1192.88
2253.243	1182.88
2257.175	1140.88
2261.104	1145.88
2265.029	1123.88
2268.95	1100.88
2272.868	1090.88
2276.783	1085.88
2280.694	1069.88
2284.601	1037.88
2288.505	1042.88
2292.405	1034.88
2296.302	1010.88
2300.195	996.88
2304.085	985.88
2307.971	969.88
2311.854	952.88
2315.734	917.88
2319.609	906.88
2323.482	896.88
2327.351	899.88
2331.216	907.88
2335.078	899.88
2338.937	878.88
2342.792	836.88
2346.643	842.88
2350.492	829.88
2354.336	824.88
2358.178	820.88
2362.015	815.88
2365.85	819.88
2369.681	830.88
2373.508	823.88
2377.333	821.88
2381.153	811.88
2384.971	801.88
2388.785	796.88
2392.595	793.88
2396.402	789.88
2400.206	780.88
2404.007	768.88
2407.804	752.88
2411.597	762.88
2415.388	763.88
2419.174	742.88
2422.958	741.88
2426.738	734.88
2430.515	732.88
2434.289	713.88
2438.059	715.88
2441.825	714.88
2445.589	708.88
2449.349	708.88
2453.106	689.88
2456.859	689.88
2460.61	680.88
2464.356	661.88
2468.1	659.88
2471.84	663.88
2475.577	656.88
2479.311	654.88
2483.041	649.88
2486.768	645.88
2490.492	648.88
2494.213	672.88
2497.93	667.88
2501.644	656.88
2505.355	649.88
2509.062	668.88
2512.766	663.88
2516.467	657.88
2520.165	669.88
2523.859	651.88
2527.551	651.88
2531.239	661.88
2534.923	653.88
2538.605	654.88
2542.283	651.88
2545.958	659.88
2549.63	640.88
2553.299	648.88
2556.964	657.88
2560.626	637.88
2564.285	642.88
2567.941	638.88
2571.594	634.88
2575.243	616.88
2578.89	625.88
2582.533	615.88
2586.173	612.88
2589.809	602.88
2593.443	586.88
2597.073	569.88
2600.701	576.88
2604.325	571.88
2607.946	544.88
2611.564	549.88
2615.178	538.88
2618.79	519.88
2622.398	521.88
2626.004	505.88
2629.606	500.88
2633.205	483.88
2636.801	481.88
2640.394	478.88
2643.983	458.88
2647.57	453.88
2651.153	437.88
2654.734	429.88
2658.311	424.88
2661.885	412.88
2665.456	419.88
2669.025	397.88
2672.589	395.88
2676.151	375.88
2679.71	373.88
2683.266	384.88
2686.819	356.88
2690.368	360.88
2693.915	345.88
2697.458	338.88
2700.999	324.88
2704.536	333.88
2708.071	316.88
2711.602	309.88
2715.13	310.88
2718.656	308.88
2722.178	311.88
2725.697	303.88
2729.214	303.88
2732.727	322.88
2736.237	316.88
2739.744	309.88
2743.249	313.88
2746.75	323.88
2750.248	328.88
2753.743	319.88
2757.236	326.88
2760.725	321.88
2764.211	324.88
2767.695	328.88
2771.175	327.88
2774.652	317.88
2778.127	298.88
2781.598	294.88
2785.067	290.88
2788.532	288.88
2791.995	288.88
2795.455	277.88
2798.911	283.88
2802.365	259.88
2805.816	281.88
2809.264	263.88
2812.709	270.88
2816.151	262.88
2819.59	264.88
2823.026	269.88
2826.46	256.88
2829.89	263.88
2833.318	259.88
2836.742	254.88
2840.164	249.88
2843.583	244.88
2846.999	255.88
2850.412	237.88
2853.822	239.88
2857.229	235.88
2860.634	250.88
2864.035	227.88
2867.434	229.88
2870.83	219.88
2874.223	206.88
2877.613	216.88
2881	203.88
2884.385	204.88
2887.766	194.88
2891.145	183.88
2894.521	174.88
2897.894	166.88
2901.264	164.88
2904.631	154.88
2907.996	138.88
2911.358	148.88
2914.717	137.88
2918.073	132.88
2921.426	135.88
2924.777	135.88
2928.124	126.88
2931.469	116.88
2934.811	121.88
2938.15	118.88
2941.487	106.88
2944.821	105.88
2948.152	95.88
2951.48	97.88
2954.805	98.88
2958.128	96.88
2961.447	91.88
2964.765	82.88
2968.079	82.88
2971.39	81.88
2974.699	80.88
2978.005	85.88
2981.308	80.88
2984.609	83.88
2987.907	84.88
2991.202	74.88
2994.494	84.88
2997.784	77.88
3001.07	81.88
3004.355	79.88
3007.636	67.88
3010.915	70.88
3014.191	60.88
3017.464	53.88
3020.734	48.88
3024.002	44.88
3027.267	30.88
3030.53	30.88
3033.789	37.88
3037.046	26.88
3040.301	19.88
3043.552	9.88
3046.801	13.88
3050.048	13.88
3053.291	7.88
3056.532	8.88
3059.771	0.88
3063.006	-2.12
3066.239	7.88
3069.469	4.88
3072.697	-5.12
3075.922	2.88
3079.144	2.88
3082.364	-2.12
3085.581	3.88
3088.795	-6.12
3092.007	-13.12
3095.216	-4.12
3098.423	-12.12
3101.627	-4.12
3104.828	-13.12
3108.026	-18.12
3111.222	-17.12
3114.416	-14.12
3117.607	-17.12
3120.795	-13.12
3123.98	-21.12
3127.163	-28.12
3130.344	-16.12
3133.521	-26.12
3136.696	-24.12
3139.869	-22.12
3143.039	-30.12
3146.206	-30.12
3149.371	-36.12
3152.533	-35.12
3155.693	-41.12
3158.85	-37.12
3162.005	-42.12
3165.157	-46.12
3168.306	-50.12
3171.453	-46.12
3174.597	-58.12
3177.739	-55.12
3180.878	-64.12
3184.014	-64.12
3187.149	-59.12
3190.28	-69.12
3193.409	-62.12
3196.536	-80.12
3199.659	-76.12
3202.781	-71.12
3205.9	-74.12
3209.016	-86.12
3212.13	-88.12
3215.241	-76.12
3218.35	-81.12
3221.456	-84.12
3224.56	-81.12
3227.661	-86.12
3230.76	-88.12
3233.856	-95.12
3236.95	-91.12
3240.041	-86.12
3243.13	-100.12
3246.216	-91.12
3249.3	-102.12
3252.382	-91.12
3255.46	-96.12
3258.537	-70.12
3261.611	-98.12
3264.682	-95.12
3267.751	-99.12
3270.818	-102.12
3273.882	-99.12
3276.943	-103.12
3280.002	-100.12
3283.059	-110.12
3286.113	-100.12
3289.165	-105.12
3292.214	-108.12
3295.261	-102.12
3298.306	-109.12
3301.348	-112.12
3304.387	-115.12
3307.425	-116.12
3310.459	-121.12
3313.492	-115.12
3316.521	-125.12
3319.549	-114.12
3322.574	-122.12
3325.597	-128.12
3328.617	-123.12
3331.635	-122.12
3334.65	-124.12
3337.663	-127.12
3340.674	-122.12
3343.682	-119.12
3346.688	-121.12
3349.691	-123.12
3352.692	-131.12
3355.691	-129.12
3358.687	-126.12
3361.681	-128.12
3364.673	-132.12
3367.662	-126.12
3370.649	-131.12
3373.633	-125.12
3376.615	-132.12
3379.595	-140.12
3382.572	-136.12
3385.547	-133.12
3388.52	-127.12
3391.49	-136.12
3394.458	-138.12
3397.424	-127.12
3400.387	-135.12
3403.348	-133.12
3406.307	-130.12
3409.263	-136.12
3412.217	-139.12
3415.168	-134.12
3418.118	-137.12
3421.065	-139.12
3424.009	-136.12
3426.951	-138.12
3429.891	-143.12
3432.829	-142.12
3435.764	-141.12
3438.697	-141.12
3441.628	-142.12
3444.557	-140.12
3447.483	-144.12
3450.407	-149.12
3453.328	-139.12
3456.247	-145.12
3459.164	-147.12
3462.079	-146.12
3464.991	-151.12
3467.902	-153.12
3470.809	-153.12
3473.715	-150.12
3476.618	-153.12
3479.519	-147.12
3482.418	-157.12
3485.315	-153.12
3488.209	-155.12
3491.101	-155.12
3493.99	-154.12
3496.878	-156.12
3499.763	-159.12
3502.646	-150.12
3505.527	-165.12
3508.405	-165.12
3511.281	-162.12
3514.155	-158.12
3517.027	-159.12
3519.897	-161.12
3522.764	-161.12
3525.629	-164.12
3528.492	-160.12
3531.352	-166.12
3534.211	-163.12
3537.067	-162.12
3539.921	-162.12
3542.773	-167.12
3545.622	-167.12
3548.469	-167.12
3551.315	-164.12
3554.157	-169.12
3556.998	-167.12
3559.837	-163.12
3562.673	-163.12
3565.507	-166.12
3568.339	-158.12
3571.169	-167.12
3573.996	-165.12
3576.822	-161.12
3579.645	-169.12
3582.466	-163.12
3585.285	-169.12
3588.101	-171.12
3590.916	-174.12
3593.728	-164.12
3596.538	-170.12
3599.346	-170.12
3602.152	-172.12
3604.956	-169.12
3607.757	-172.12
3610.556	-171.12
3613.354	-170.12
3616.149	-179.12
3618.942	-175.12
3621.732	-174.12
3624.521	-169.12
3627.307	-174.12
3630.092	-172.12
3632.874	-174.12
3635.654	-173.12
3638.432	-173.12
3641.208	-180.12
3643.982	-171.12
3646.753	-173.12
3649.523	-173.12
3652.29	-181.12
3655.055	-178.12
3657.818	-174.12
3660.579	-173.12
3663.338	-175.12
3666.095	-173.12
3668.849	-178.12
3671.602	-174.12
3674.352	-177.12
3677.101	-171.12
3679.847	-176.12
3682.591	-173.12
3685.333	-174.12
3688.073	-175.12
3690.811	-169.12
3693.547	-173.12
3696.281	-173.12
3699.013	-169.12
3701.742	-174.12
3704.47	-179.12
3707.195	-169.12
3709.919	-175.12
3712.64	-175.12
3715.359	-171.12
3718.076	-170.12
3720.792	-174.12
3723.505	-179.12
3726.216	-180.12
3728.925	-179.12
3731.632	-176.12
3734.336	-178.12
3737.039	-175.12
3739.74	-177.12
3742.439	-172.12
3745.136	-183.12
3747.83	-175.12
3750.523	-173.12
3753.213	-194.12
3755.902	-181.12
3758.589	-179.12
3761.273	-179.12
3763.956	-178.12
3766.636	-176.12
3769.315	-177.12
3771.991	-177.12
3774.665	-171.12
3777.338	-179.12
3780.008	-186.12
3782.677	-180.12
3785.343	-185.12
3788.007	-188.12
3790.67	-180.12
3793.33	-177.12
3795.989	-172.12
3798.645	-183.12
3801.299	-175.12
3803.952	-179.12
3806.602	-190.12
3809.251	-188.12
3811.897	-184.12
3814.542	-179.12
3817.184	-182.12
3819.825	-181.12
3822.463	-179.12
3825.1	-185.12
3827.735	-185.12
3830.367	-184.12
3832.998	-178.12
3835.627	-179.12
3838.253	-185.12
3840.878	-178.12
3843.501	-181.12
3846.122	-184.12
3848.741	-179.12
3851.358	-179.12
3853.973	-180.12
3856.586	-182.12
3859.197	-175.12
3861.806	-179.12
3864.414	-178.12
3867.019	-175.12
3869.622	-175.12
3872.224	-168.12
3874.823	-151.12
3877.421	-130.12
3880.016	-98.12
3882.61	-72.12
3885.202	-62.12
3887.792	-85.12
3890.38	-120.12
3892.966	-149.12
3895.55	-168.12
3898.132	-180.12
3900.713	-179.12
3903.291	-185.12
3905.868	-178.12
3908.442	-182.12
3911.015	-180.12
3913.586	-185.12
3916.155	-182.12
3918.722	-184.12
3921.287	-185.12
3923.85	-184.12
3926.411	-182.12
3928.971	-183.12
3931.528	-184.12
3934.084	-183.12
3936.638	-184.12
3939.19	-192.12
3941.74	-180.12
3944.288	-184.12
3946.834	-180.12
3949.378	-185.12
3951.921	-181.12
3954.462	-186.12
3957	-180.12
3959.537	-181.12
3962.072	-174.12
3964.606	-181.12
3967.137	-180.12
3969.667	-182.12
3972.194	-177.12
3974.72	-181.12
3977.244	-184.12
3979.766	-188.12
3982.286	-179.12
3984.805	-181.12
3987.321	-175.12
3989.836	-178.12
3992.349	-176.12
3994.86	-186.12
3997.369	-175.12
3999.877	-173.12
4002.382	-176.12
4004.886	-175.12
4007.388	-172.12
4009.888	-179.12
4012.386	-176.12
4014.883	-176.12
4017.377	-170.12
4019.87	-172.12
4022.361	-181.12
4024.85	-174.12
4027.338	-171.12
4029.823	-177.12
4032.307	-175.12
4034.789	-181.12
4037.269	-171.12
4039.747	-176.12
4042.224	-175.12
4044.699	-174.12
4047.172	-175.12
4049.643	-171.12
4052.112	-174.12
4054.58	-180.12
4057.046	-173.12
4059.51	-175.12
4061.972	-172.12
4064.432	-172.12
4066.891	-181.12
4069.348	-171.12
4071.803	-170.12
4074.256	-170.12
4076.708	-176.12
4079.158	-179.12
4081.606	-176.12
4084.052	-172.12
4086.497	-174.12
4088.939	-174.12
4091.38	-174.12
4093.819	-178.12
4096.257	-186.12
4098.693	-185.12
4101.127	-184.12
4103.559	-185.12
4105.989	-15.12
4108.418	-26.12
4110.845	-26.12
4113.27	-28.12
4115.694	-18.12
4118.115	-9.12
4120.535	-170.12
4122.954	-176.12
4125.37	-178.12
4127.785	-178.12
4130.198	-176.12
4132.609	-178.12
4135.019	-185.12
4137.427	-183.12
4139.833	-186.12
4142.237	-190.12