File: Data/Raman/2017-08-29 - Alluminum 2/Aug 29 2017 - Aluminum 2/EC 11 5_RamanShift_3.txt
Data from EC 11 5_RamanShift_3.txt Node

Date: Tue Aug 29 12:56:37 IDT 2017
User: aro
Spectrometer: QEPB0276
Trigger mode: 0
Integration Time (sec): 3.000000E1
Scans to average: 1
Electric dark correction enabled: true
Nonlinearity correction enabled: false
Boxcar width: 0
XAxis mode: Raman Shifts
Number of Pixels in Spectrum: 1044
>>>>>Begin Spectral Data<<<<<
160.701	16.5
166.742	41.5
172.777	133.5
178.805	395.5
184.826	996.5
190.841	2035.5
196.849	3226.5
202.85	4137.5
208.845	4492.5
214.833	4571.5
220.815	4613.5
226.789	4767.5
232.758	4895.5
238.719	5003.5
244.674	5130.5
250.623	5138.5
256.565	5212.5
262.5	5268.5
268.429	5310.5
274.351	5386.5
280.267	5452.5
286.176	5498.5
292.079	5578.5
297.975	5617.5
303.865	5679.5
309.748	5731.5
315.625	5748.5
321.495	5758.5
327.359	5798.5
333.217	5803.5
339.068	5831.5
344.912	5870.5
350.751	5874.5
356.583	5867.5
362.408	5897.5
368.227	5974.5
374.04	6055.5
379.847	6199.5
385.647	6249.5
391.44	6198.5
397.228	6067.5
403.009	6100.5
408.784	6341.5
414.553	6799.5
420.315	7353.5
426.071	7375.5
431.821	6782.5
437.565	6310.5
443.302	6109.5
449.033	6016.5
454.758	5983.5
460.477	5943.5
466.189	5875.5
471.896	5807.5
477.596	5772.5
483.29	5734.5
488.978	5734.5
494.66	5692.5
500.335	5591.5
506.005	5381.5
511.668	5191.5
517.325	4988.5
522.977	4843.5
528.622	4719.5
534.261	4678.5
539.894	4575.5
545.521	4553.5
551.141	4521.5
556.756	4511.5
562.365	4470.5
567.968	4442.5
573.565	4430.5
579.155	4448.5
584.74	4417.5
590.319	4383.5
595.892	4351.5
601.459	4369.5
607.02	4318.5
612.575	4310.5
618.124	4258.5
623.667	4249.5
629.204	4197.5
634.735	4234.5
640.261	4354.5
645.781	4507.5
651.294	4589.5
656.802	4428.5
662.304	4233.5
667.8	4116.5
673.29	4085.5
678.775	4048.5
684.254	3998.5
689.726	3989.5
695.193	3971.5
700.655	3957.5
706.11	3941.5
711.56	3914.5
717.004	3909.5
722.442	3883.5
727.874	3855.5
733.301	3875.5
738.722	3878.5
744.137	3883.5
749.547	3960.5
754.951	4008.5
760.349	3964.5
765.741	3911.5
771.128	3913.5
776.509	3891.5
781.885	3916.5
787.254	3959.5
792.618	3937.5
797.977	3930.5
803.33	3926.5
808.677	3878.5
814.019	3897.5
819.355	3835.5
824.686	3815.5
830.011	3800.5
835.33	3750.5
840.644	3742.5
845.952	3740.5
851.255	3744.5
856.552	3730.5
861.844	3700.5
867.13	3651.5
872.41	3633.5
877.686	3611.5
882.955	3586.5
888.219	3574.5
893.478	3513.5
898.731	3478.5
903.979	3493.5
909.221	3427.5
914.458	3458.5
919.69	3456.5
924.916	3468.5
930.136	3478.5
935.351	3458.5
940.561	3483.5
945.766	3452.5
950.965	3447.5
956.158	3440.5
961.347	3395.5
966.529	3355.5
971.707	3320.5
976.879	3288.5
982.046	3249.5
987.208	3241.5
992.364	3249.5
997.515	3260.5
1002.66	3290.5
1007.801	3334.5
1012.936	3374.5
1018.066	3363.5
1023.19	3401.5
1028.309	3377.5
1033.423	3380.5
1038.532	3363.5
1043.636	3347.5
1048.734	3312.5
1053.827	3290.5
1058.915	3265.5
1063.998	3222.5
1069.075	3232.5
1074.147	3232.5
1079.214	3247.5
1084.276	3244.5
1089.333	3285.5
1094.385	3261.5
1099.431	3266.5
1104.472	3250.5
1109.509	3241.5
1114.54	3194.5
1119.565	3159.5
1124.586	3087.5
1129.602	3059.5
1134.613	3062.5
1139.618	3053.5
1144.619	3057.5
1149.614	3064.5
1154.604	3047.5
1159.589	3057.5
1164.57	3068.5
1169.545	3066.5
1174.515	3071.5
1179.48	3069.5
1184.44	3041.5
1189.395	3016.5
1194.345	3004.5
1199.29	2999.5
1204.23	2996.5
1209.165	2986.5
1214.095	3011.5
1219.021	3010.5
1223.941	3029.5
1228.856	3063.5
1233.766	3057.5
1238.672	3025.5
1243.572	3026.5
1248.467	3013.5
1253.358	2966.5
1258.244	2931.5
1263.124	2884.5
1268	2840.5
1272.871	2817.5
1277.737	2781.5
1282.599	2776.5
1287.455	2769.5
1292.306	2772.5
1297.153	2790.5
1301.995	2828.5
1306.832	2830.5
1311.664	2849.5
1316.491	2831.5
1321.314	2812.5
1326.132	2800.5
1330.945	2721.5
1335.753	2706.5
1340.556	2636.5
1345.354	2642.5
1350.148	2627.5
1354.937	2607.5
1359.722	2641.5
1364.501	2659.5
1369.276	2681.5
1374.046	2725.5
1378.811	2716.5
1383.572	2747.5
1388.327	2720.5
1393.079	2679.5
1397.825	2638.5
1402.567	2550.5
1407.304	2499.5
1412.036	2478.5
1416.764	2462.5
1421.487	2453.5
1426.205	2428.5
1430.919	2424.5
1435.628	2478.5
1440.333	2492.5
1445.032	2505.5
1449.727	2514.5
1454.418	2527.5
1459.104	2546.5
1463.785	2510.5
1468.462	2506.5
1473.134	2493.5
1477.802	2474.5
1482.465	2491.5
1487.123	2510.5
1491.777	2536.5
1496.426	2573.5
1501.071	2603.5
1505.711	2658.5
1510.347	2698.5
1514.978	2724.5
1519.604	2739.5
1524.226	2737.5
1528.844	2727.5
1533.457	2689.5
1538.065	2627.5
1542.669	2571.5
1547.269	2536.5
1551.864	2476.5
1556.454	2454.5
1561.041	2431.5
1565.622	2379.5
1570.199	2379.5
1574.772	2333.5
1579.34	2325.5
1583.904	2325.5
1588.464	2308.5
1593.019	2277.5
1597.569	2264.5
1602.115	2223.5
1606.657	2182.5
1611.195	2161.5
1615.728	2144.5
1620.256	2121.5
1624.78	2121.5
1629.3	2085.5
1633.816	2105.5
1638.327	2136.5
1642.834	2154.5
1647.336	2189.5
1651.834	2201.5
1656.328	2217.5
1660.817	2259.5
1665.302	2266.5
1669.783	2283.5
1674.259	2268.5
1678.732	2265.5
1683.199	2246.5
1687.663	2231.5
1692.122	2225.5
1696.577	2257.5
1701.028	2271.5
1705.474	2304.5
1709.917	2326.5
1714.355	2351.5
1718.788	2289.5
1723.218	2253.5
1727.643	2229.5
1732.064	2194.5
1736.481	2132.5
1740.893	2091.5
1745.301	2037.5
1749.705	2001.5
1754.105	1945.5
1758.501	1917.5
1762.893	1888.5
1767.28	1889.5
1771.663	1874.5
1776.042	1873.5
1780.417	1883.5
1784.787	1911.5
1789.154	1960.5
1793.516	1972.5
1797.874	2015.5
1802.228	2031.5
1806.578	2039.5
1810.924	2009.5
1815.266	1957.5
1819.603	1910.5
1823.937	1873.5
1828.266	1813.5
1832.591	1788.5
1836.913	1750.5
1841.23	1750.5
1845.543	1738.5
1849.852	1720.5
1854.156	1719.5
1858.457	1733.5
1862.754	1742.5
1867.047	1748.5
1871.335	1763.5
1875.62	1776.5
1879.9	1786.5
1884.177	1782.5
1888.449	1793.5
1892.718	1785.5
1896.982	1795.5
1901.243	1775.5
1905.499	1805.5
1909.752	1821.5
1914	1828.5
1918.245	1865.5
1922.485	1877.5
1926.722	1889.5
1930.954	1921.5
1935.183	1918.5
1939.408	1964.5
1943.628	1932.5
1947.845	1915.5
1952.058	1880.5
1956.267	1855.5
1960.472	1798.5
1964.673	1748.5
1968.87	1687.5
1973.063	1654.5
1977.252	1597.5
1981.438	1579.5
1985.619	1553.5
1989.797	1502.5
1993.971	1481.5
1998.14	1464.5
2002.306	1452.5
2006.469	1440.5
2010.627	1452.5
2014.781	1407.5
2018.932	1438.5
2023.078	1403.5
2027.221	1389.5
2031.36	1366.5
2035.495	1356.5
2039.627	1348.5
2043.754	1328.5
2047.878	1342.5
2051.998	1323.5
2056.114	1325.5
2060.226	1344.5
2064.334	1361.5
2068.439	1358.5
2072.54	1385.5
2076.637	1395.5
2080.73	1396.5
2084.82	1421.5
2088.906	1431.5
2092.988	1416.5
2097.066	1427.5
2101.14	1393.5
2105.211	1381.5
2109.278	1357.5
2113.342	1342.5
2117.401	1318.5
2121.457	1293.5
2125.509	1276.5
2129.558	1272.5
2133.602	1243.5
2137.643	1231.5
2141.681	1206.5
2145.714	1201.5
2149.744	1193.5
2153.77	1180.5
2157.793	1163.5
2161.812	1140.5
2165.827	1119.5
2169.838	1119.5
2173.846	1089.5
2177.851	1062.5
2181.851	1037.5
2185.848	1038.5
2189.841	1017.5
2193.831	1019.5
2197.817	995.5
2201.799	1000.5
2205.778	1012.5
2209.753	987.5
2213.725	993.5
2217.693	997.5
2221.657	986.5
2225.618	987.5
2229.575	980.5
2233.529	968.5
2237.479	969.5
2241.425	958.5
2245.368	949.5
2249.307	930.5
2253.243	917.5
2257.175	898.5
2261.104	871.5
2265.029	889.5
2268.95	865.5
2272.868	842.5
2276.783	844.5
2280.694	819.5
2284.601	814.5
2288.505	819.5
2292.405	819.5
2296.302	802.5
2300.195	787.5
2304.085	771.5
2307.971	748.5
2311.854	739.5
2315.734	730.5
2319.609	717.5
2323.482	705.5
2327.351	714.5
2331.216	730.5
2335.078	726.5
2338.937	710.5
2342.792	667.5
2346.643	673.5
2350.492	665.5
2354.336	657.5
2358.178	651.5
2362.015	673.5
2365.85	657.5
2369.681	665.5
2373.508	657.5
2377.333	654.5
2381.153	635.5
2384.971	645.5
2388.785	638.5
2392.595	631.5
2396.402	630.5
2400.206	621.5
2404.007	617.5
2407.804	614.5
2411.597	623.5
2415.388	604.5
2419.174	608.5
2422.958	599.5
2426.738	590.5
2430.515	587.5
2434.289	596.5
2438.059	579.5
2441.825	575.5
2445.589	572.5
2449.349	573.5
2453.106	564.5
2456.859	558.5
2460.61	547.5
2464.356	542.5
2468.1	540.5
2471.84	526.5
2475.577	536.5
2479.311	525.5
2483.041	528.5
2486.768	532.5
2490.492	518.5
2494.213	527.5
2497.93	520.5
2501.644	524.5
2505.355	526.5
2509.062	543.5
2512.766	527.5
2516.467	530.5
2520.165	526.5
2523.859	520.5
2527.551	523.5
2531.239	530.5
2534.923	517.5
2538.605	524.5
2542.283	523.5
2545.958	528.5
2549.63	536.5
2553.299	523.5
2556.964	525.5
2560.626	531.5
2564.285	517.5
2567.941	524.5
2571.594	512.5
2575.243	508.5
2578.89	508.5
2582.533	495.5
2586.173	479.5
2589.809	491.5
2593.443	476.5
2597.073	463.5
2600.701	462.5
2604.325	457.5
2607.946	441.5
2611.564	446.5
2615.178	440.5
2618.79	428.5
2622.398	431.5
2626.004	418.5
2629.606	412.5
2633.205	405.5
2636.801	396.5
2640.394	376.5
2643.983	366.5
2647.57	360.5
2651.153	353.5
2654.734	355.5
2658.311	343.5
2661.885	334.5
2665.456	341.5
2669.025	338.5
2672.589	328.5
2676.151	318.5
2679.71	314.5
2683.266	313.5
2686.819	300.5
2690.368	293.5
2693.915	289.5
2697.458	281.5
2700.999	289.5
2704.536	284.5
2708.071	266.5
2711.602	266.5
2715.13	257.5
2718.656	261.5
2722.178	258.5
2725.697	249.5
2729.214	259.5
2732.727	263.5
2736.237	258.5
2739.744	260.5
2743.249	267.5
2746.75	269.5
2750.248	272.5
2753.743	270.5
2757.236	277.5
2760.725	273.5
2764.211	258.5
2767.695	265.5
2771.175	265.5
2774.652	261.5
2778.127	260.5
2781.598	248.5
2785.067	246.5
2788.532	243.5
2791.995	234.5
2795.455	233.5
2798.911	248.5
2802.365	231.5
2805.816	236.5
2809.264	230.5
2812.709	229.5
2816.151	229.5
2819.59	229.5
2823.026	227.5
2826.46	221.5
2829.89	213.5
2833.318	210.5
2836.742	216.5
2840.164	211.5
2843.583	207.5
2846.999	205.5
2850.412	201.5
2853.822	198.5
2857.229	210.5
2860.634	202.5
2864.035	200.5
2867.434	198.5
2870.83	198.5
2874.223	189.5
2877.613	179.5
2881	178.5
2884.385	161.5
2887.766	167.5
2891.145	166.5
2894.521	159.5
2897.894	147.5
2901.264	146.5
2904.631	129.5
2907.996	132.5
2911.358	134.5
2914.717	124.5
2918.073	123.5
2921.426	117.5
2924.777	114.5
2928.124	110.5
2931.469	109.5
2934.811	112.5
2938.15	105.5
2941.487	105.5
2944.821	105.5
2948.152	85.5
2951.48	84.5
2954.805	93.5
2958.128	81.5
2961.447	82.5
2964.765	83.5
2968.079	80.5
2971.39	78.5
2974.699	81.5
2978.005	84.5
2981.308	80.5
2984.609	70.5
2987.907	81.5
2991.202	69.5
2994.494	82.5
2997.784	67.5
3001.07	69.5
3004.355	60.5
3007.636	64.5
3010.915	66.5
3014.191	53.5
3017.464	53.5
3020.734	52.5
3024.002	36.5
3027.267	40.5
3030.53	29.5
3033.789	33.5
3037.046	33.5
3040.301	25.5
3043.552	20.5
3046.801	15.5
3050.048	21.5
3053.291	11.5
3056.532	15.5
3059.771	20.5
3063.006	6.5
3066.239	16.5
3069.469	18.5
3072.697	4.5
3075.922	12.5
3079.144	17.5
3082.364	0.5
3085.581	13.5
3088.795	2.5
3092.007	1.5
3095.216	2.5
3098.423	2.5
3101.627	7.5
3104.828	-0.5
3108.026	-3.5
3111.222	-7.5
3114.416	3.5
3117.607	-4.5
3120.795	-3.5
3123.98	-8.5
3127.163	-5.5
3130.344	-10.5
3133.521	-11.5
3136.696	-2.5
3139.869	-11.5
3143.039	-14.5
3146.206	-12.5
3149.371	-21.5
3152.533	-20.5
3155.693	-24.5
3158.85	-23.5
3162.005	-23.5
3165.157	-32.5
3168.306	-29.5
3171.453	-37.5
3174.597	-32.5
3177.739	-30.5
3180.878	-41.5
3184.014	-43.5
3187.149	-37.5
3190.28	-42.5
3193.409	-43.5
3196.536	-53.5
3199.659	-47.5
3202.781	-48.5
3205.9	-50.5
3209.016	-65.5
3212.13	-53.5
3215.241	-59.5
3218.35	-57.5
3221.456	-58.5
3224.56	-61.5
3227.661	-61.5
3230.76	-66.5
3233.856	-63.5
3236.95	-71.5
3240.041	-64.5
3243.13	-71.5
3246.216	-62.5
3249.3	-67.5
3252.382	-66.5
3255.46	-61.5
3258.537	-37.5
3261.611	-66.5
3264.682	-70.5
3267.751	-67.5
3270.818	-72.5
3273.882	-72.5
3276.943	-70.5
3280.002	-72.5
3283.059	-80.5
3286.113	-73.5
3289.165	-75.5
3292.214	-74.5
3295.261	-80.5
3298.306	-77.5
3301.348	-79.5
3304.387	-83.5
3307.425	-80.5
3310.459	-82.5
3313.492	-82.5
3316.521	-90.5
3319.549	-86.5
3322.574	-89.5
3325.597	-97.5
3328.617	-93.5
3331.635	-92.5
3334.65	-93.5
3337.663	-98.5
3340.674	-92.5
3343.682	-95.5
3346.688	-92.5
3349.691	-96.5
3352.692	-99.5
3355.691	-96.5
3358.687	-98.5
3361.681	-97.5
3364.673	-97.5
3367.662	-91.5
3370.649	-102.5
3373.633	-100.5
3376.615	-101.5
3379.595	-100.5
3382.572	-101.5
3385.547	-104.5
3388.52	-94.5
3391.49	-99.5
3394.458	-105.5
3397.424	-99.5
3400.387	-100.5
3403.348	-101.5
3406.307	-103.5
3409.263	-105.5
3412.217	-101.5
3415.168	-103.5
3418.118	-106.5
3421.065	-102.5
3424.009	-104.5
3426.951	-108.5
3429.891	-104.5
3432.829	-102.5
3435.764	-108.5
3438.697	-106.5
3441.628	-103.5
3444.557	-106.5
3447.483	-107.5
3450.407	-113.5
3453.328	-110.5
3456.247	-111.5
3459.164	-112.5
3462.079	-115.5
3464.991	-116.5
3467.902	-116.5
3470.809	-122.5
3473.715	-117.5
3476.618	-119.5
3479.519	-110.5
3482.418	-119.5
3485.315	-123.5
3488.209	-127.5
3491.101	-119.5
3493.99	-114.5
3496.878	-119.5
3499.763	-123.5
3502.646	-116.5
3505.527	-130.5
3508.405	-123.5
3511.281	-126.5
3514.155	-116.5
3517.027	-121.5
3519.897	-126.5
3522.764	-124.5
3525.629	-124.5
3528.492	-125.5
3531.352	-125.5
3534.211	-122.5
3537.067	-125.5
3539.921	-128.5
3542.773	-131.5
3545.622	-125.5
3548.469	-132.5
3551.315	-124.5
3554.157	-119.5
3556.998	-130.5
3559.837	-123.5
3562.673	-121.5
3565.507	-127.5
3568.339	-122.5
3571.169	-128.5
3573.996	-128.5
3576.822	-122.5
3579.645	-132.5
3582.466	-123.5
3585.285	-133.5
3588.101	-133.5
3590.916	-135.5
3593.728	-127.5
3596.538	-136.5
3599.346	-133.5
3602.152	-133.5
3604.956	-129.5
3607.757	-135.5
3610.556	-130.5
3613.354	-129.5
3616.149	-137.5
3618.942	-131.5
3621.732	-135.5
3624.521	-128.5
3627.307	-133.5
3630.092	-134.5
3632.874	-137.5
3635.654	-132.5
3638.432	-135.5
3641.208	-134.5
3643.982	-130.5
3646.753	-133.5
3649.523	-136.5
3652.29	-137.5
3655.055	-135.5
3657.818	-138.5
3660.579	-134.5
3663.338	-136.5
3666.095	-136.5
3668.849	-137.5
3671.602	-130.5
3674.352	-135.5
3677.101	-133.5
3679.847	-137.5
3682.591	-134.5
3685.333	-134.5
3688.073	-138.5
3690.811	-132.5
3693.547	-138.5
3696.281	-139.5
3699.013	-134.5
3701.742	-138.5
3704.47	-140.5
3707.195	-135.5
3709.919	-134.5
3712.64	-140.5
3715.359	-138.5
3718.076	-136.5
3720.792	-140.5
3723.505	-134.5
3726.216	-139.5
3728.925	-135.5
3731.632	-139.5
3734.336	-143.5
3737.039	-140.5
3739.74	-139.5
3742.439	-134.5
3745.136	-140.5
3747.83	-140.5
3750.523	-137.5
3753.213	-157.5
3755.902	-145.5
3758.589	-141.5
3761.273	-144.5
3763.956	-136.5
3766.636	-140.5
3769.315	-135.5
3771.991	-141.5
3774.665	-135.5
3777.338	-140.5
3780.008	-146.5
3782.677	-141.5
3785.343	-146.5
3788.007	-147.5
3790.67	-136.5
3793.33	-144.5
3795.989	-139.5
3798.645	-142.5
3801.299	-141.5
3803.952	-144.5
3806.602	-145.5
3809.251	-149.5
3811.897	-138.5
3814.542	-142.5
3817.184	-139.5
3819.825	-138.5
3822.463	-143.5
3825.1	-149.5
3827.735	-143.5
3830.367	-143.5
3832.998	-139.5
3835.627	-139.5
3838.253	-143.5
3840.878	-138.5
3843.501	-137.5
3846.122	-146.5
3848.741	-141.5
3851.358	-140.5
3853.973	-140.5
3856.586	-145.5
3859.197	-141.5
3861.806	-142.5
3864.414	-142.5
3867.019	-135.5
3869.622	-130.5
3872.224	-123.5
3874.823	-114.5
3877.421	-89.5
3880.016	-62.5
3882.61	-41.5
3885.202	-29.5
3887.792	-42.5
3890.38	-78.5
3892.966	-115.5
3895.55	-127.5
3898.132	-141.5
3900.713	-138.5
3903.291	-147.5
3905.868	-138.5
3908.442	-137.5
3911.015	-140.5
3913.586	-143.5
3916.155	-142.5
3918.722	-138.5
3921.287	-139.5
3923.85	-143.5
3926.411	-146.5
3928.971	-147.5
3931.528	-138.5
3934.084	-147.5
3936.638	-144.5
3939.19	-143.5
3941.74	-140.5
3944.288	-147.5
3946.834	-141.5
3949.378	-142.5
3951.921	-141.5
3954.462	-137.5
3957	-140.5
3959.537	-142.5
3962.072	-134.5
3964.606	-138.5
3967.137	-140.5
3969.667	-140.5
3972.194	-137.5
3974.72	-138.5
3977.244	-141.5
3979.766	-146.5
3982.286	-143.5
3984.805	-137.5
3987.321	-137.5
3989.836	-137.5
3992.349	-134.5
3994.86	-140.5
3997.369	-142.5
3999.877	-132.5
4002.382	-135.5
4004.886	-135.5
4007.388	-133.5
4009.888	-136.5
4012.386	-138.5
4014.883	-138.5
4017.377	-134.5
4019.87	-130.5
4022.361	-136.5
4024.85	-138.5
4027.338	-133.5
4029.823	-135.5
4032.307	-138.5
4034.789	-136.5
4037.269	-136.5
4039.747	-134.5
4042.224	-134.5
4044.699	-137.5
4047.172	-137.5
4049.643	-136.5
4052.112	-134.5
4054.58	-139.5
4057.046	-134.5
4059.51	-142.5
4061.972	-133.5
4064.432	-132.5
4066.891	-139.5
4069.348	-133.5
4071.803	-142.5
4074.256	-136.5
4076.708	-141.5
4079.158	-140.5
4081.606	-139.5
4084.052	-140.5
4086.497	-142.5
4088.939	-136.5
4091.38	-135.5
4093.819	-140.5
4096.257	-147.5
4098.693	-150.5
4101.127	-147.5
4103.559	-151.5
4105.989	-3.5
4108.418	-3.5
4110.845	-5.5
4113.27	-11.5
4115.694	-5.5
4118.115	12.5
4120.535	-136.5
4122.954	-134.5
4125.37	-138.5
4127.785	-139.5
4130.198	-136.5
4132.609	-144.5
4135.019	-143.5
4137.427	-147.5
4139.833	-147.5
4142.237	-148.5