File: Data/Raman/2017-08-29 - Alluminum 2/Aug 29 2017 - Aluminum 2/EC 110 4_RamanShift_1.txt
Data from EC 110 4_RamanShift_1.txt Node

Date: Tue Aug 29 12:35:07 IDT 2017
User: aro
Spectrometer: QEPB0276
Trigger mode: 0
Integration Time (sec): 3.000000E1
Scans to average: 1
Electric dark correction enabled: true
Nonlinearity correction enabled: false
Boxcar width: 0
XAxis mode: Raman Shifts
Number of Pixels in Spectrum: 1044
>>>>>Begin Spectral Data<<<<<
160.701	32.12
166.742	35.12
172.777	68.12
178.805	173.12
184.826	415.12
190.841	823.12
196.849	1313.12
202.85	1657.12
208.845	1792.12
214.833	1802.12
220.815	1803.12
226.789	1815.12
232.758	1872.12
238.719	1911.12
244.674	1933.12
250.623	1928.12
256.565	1955.12
262.5	1987.12
268.429	1989.12
274.351	2016.12
280.267	2065.12
286.176	2094.12
292.079	2106.12
297.975	2153.12
303.865	2151.12
309.748	2203.12
315.625	2209.12
321.495	2266.12
327.359	2252.12
333.217	2294.12
339.068	2307.12
344.912	2329.12
350.751	2355.12
356.583	2364.12
362.408	2387.12
368.227	2447.12
374.04	2587.12
379.847	2768.12
385.647	2831.12
391.44	2758.12
397.228	2603.12
403.009	2638.12
408.784	2892.12
414.553	3431.12
420.315	4051.12
426.071	4074.12
431.821	3424.12
437.565	2845.12
443.302	2686.12
449.033	2595.12
454.758	2550.12
460.477	2484.12
466.189	2456.12
471.896	2374.12
477.596	2343.12
483.29	2345.12
488.978	2333.12
494.66	2297.12
500.335	2182.12
506.005	2000.12
511.668	1782.12
517.325	1617.12
522.977	1449.12
528.622	1354.12
534.261	1294.12
539.894	1220.12
545.521	1187.12
551.141	1155.12
556.756	1133.12
562.365	1107.12
567.968	1102.12
573.565	1099.12
579.155	1108.12
584.74	1104.12
590.319	1093.12
595.892	1071.12
601.459	1093.12
607.02	1095.12
612.575	1065.12
618.124	1049.12
623.667	1024.12
629.204	1025.12
634.735	1065.12
640.261	1209.12
645.781	1402.12
651.294	1481.12
656.802	1336.12
662.304	1099.12
667.8	982.12
673.29	934.12
678.775	910.12
684.254	883.12
689.726	873.12
695.193	870.12
700.655	856.12
706.11	852.12
711.56	845.12
717.004	843.12
722.442	848.12
727.874	847.12
733.301	856.12
738.722	878.12
744.137	914.12
749.547	972.12
754.951	1016.12
760.349	980.12
765.741	942.12
771.128	918.12
776.509	937.12
781.885	987.12
787.254	993.12
792.618	1019.12
797.977	1030.12
803.33	1022.12
808.677	992.12
814.019	986.12
819.355	967.12
824.686	954.12
830.011	943.12
835.33	917.12
840.644	909.12
845.952	887.12
851.255	860.12
856.552	825.12
861.844	807.12
867.13	796.12
872.41	782.12
877.686	757.12
882.955	744.12
888.219	735.12
893.478	726.12
898.731	714.12
903.979	724.12
909.221	711.12
914.458	710.12
919.69	713.12
924.916	700.12
930.136	719.12
935.351	709.12
940.561	700.12
945.766	690.12
950.965	712.12
956.158	695.12
961.347	679.12
966.529	702.12
971.707	687.12
976.879	670.12
982.046	672.12
987.208	659.12
992.364	672.12
997.515	674.12
1002.66	677.12
1007.801	687.12
1012.936	691.12
1018.066	696.12
1023.19	708.12
1028.309	717.12
1033.423	727.12
1038.532	721.12
1043.636	729.12
1048.734	734.12
1053.827	730.12
1058.915	721.12
1063.998	733.12
1069.075	725.12
1074.147	723.12
1079.214	728.12
1084.276	725.12
1089.333	705.12
1094.385	707.12
1099.431	705.12
1104.472	701.12
1109.509	683.12
1114.54	660.12
1119.565	651.12
1124.586	649.12
1129.602	636.12
1134.613	654.12
1139.618	629.12
1144.619	631.12
1149.614	651.12
1154.604	652.12
1159.589	649.12
1164.57	660.12
1169.545	652.12
1174.515	670.12
1179.48	665.12
1184.44	662.12
1189.395	645.12
1194.345	658.12
1199.29	651.12
1204.23	643.12
1209.165	647.12
1214.095	656.12
1219.021	666.12
1223.941	660.12
1228.856	679.12
1233.766	673.12
1238.672	660.12
1243.572	654.12
1248.467	646.12
1253.358	628.12
1258.244	614.12
1263.124	603.12
1268	588.12
1272.871	574.12
1277.737	570.12
1282.599	570.12
1287.455	563.12
1292.306	568.12
1297.153	580.12
1301.995	575.12
1306.832	587.12
1311.664	585.12
1316.491	585.12
1321.314	576.12
1326.132	578.12
1330.945	579.12
1335.753	568.12
1340.556	547.12
1345.354	542.12
1350.148	547.12
1354.937	549.12
1359.722	544.12
1364.501	545.12
1369.276	533.12
1374.046	542.12
1378.811	528.12
1383.572	542.12
1388.327	544.12
1393.079	527.12
1397.825	509.12
1402.567	509.12
1407.304	501.12
1412.036	490.12
1416.764	490.12
1421.487	492.12
1426.205	488.12
1430.919	489.12
1435.628	510.12
1440.333	505.12
1445.032	510.12
1449.727	511.12
1454.418	514.12
1459.104	502.12
1463.785	493.12
1468.462	510.12
1473.134	515.12
1477.802	488.12
1482.465	498.12
1487.123	508.12
1491.777	495.12
1496.426	505.12
1501.071	512.12
1505.711	510.12
1510.347	522.12
1514.978	547.12
1519.604	527.12
1524.226	524.12
1528.844	518.12
1533.457	512.12
1538.065	496.12
1542.669	490.12
1547.269	491.12
1551.864	483.12
1556.454	487.12
1561.041	491.12
1565.622	488.12
1570.199	460.12
1574.772	466.12
1579.34	466.12
1583.904	479.12
1588.464	455.12
1593.019	452.12
1597.569	465.12
1602.115	442.12
1606.657	446.12
1611.195	438.12
1615.728	427.12
1620.256	440.12
1624.78	423.12
1629.3	435.12
1633.816	434.12
1638.327	440.12
1642.834	448.12
1647.336	441.12
1651.834	446.12
1656.328	446.12
1660.817	448.12
1665.302	440.12
1669.783	441.12
1674.259	453.12
1678.732	437.12
1683.199	442.12
1687.663	437.12
1692.122	447.12
1696.577	446.12
1701.028	442.12
1705.474	439.12
1709.917	431.12
1714.355	429.12
1718.788	420.12
1723.218	420.12
1727.643	403.12
1732.064	406.12
1736.481	395.12
1740.893	373.12
1745.301	371.12
1749.705	364.12
1754.105	364.12
1758.501	355.12
1762.893	347.12
1767.28	351.12
1771.663	337.12
1776.042	343.12
1780.417	345.12
1784.787	344.12
1789.154	348.12
1793.516	344.12
1797.874	353.12
1802.228	351.12
1806.578	361.12
1810.924	355.12
1815.266	345.12
1819.603	332.12
1823.937	335.12
1828.266	319.12
1832.591	309.12
1836.913	311.12
1841.23	308.12
1845.543	313.12
1849.852	310.12
1854.156	309.12
1858.457	311.12
1862.754	317.12
1867.047	307.12
1871.335	320.12
1875.62	316.12
1879.9	322.12
1884.177	316.12
1888.449	324.12
1892.718	318.12
1896.982	321.12
1901.243	314.12
1905.499	305.12
1909.752	314.12
1914	316.12
1918.245	322.12
1922.485	320.12
1926.722	321.12
1930.954	330.12
1935.183	317.12
1939.408	330.12
1943.628	332.12
1947.845	321.12
1952.058	314.12
1956.267	311.12
1960.472	303.12
1964.673	291.12
1968.87	282.12
1973.063	290.12
1977.252	273.12
1981.438	268.12
1985.619	273.12
1989.797	262.12
1993.971	260.12
1998.14	260.12
2002.306	253.12
2006.469	252.12
2010.627	265.12
2014.781	257.12
2018.932	254.12
2023.078	242.12
2027.221	246.12
2031.36	242.12
2035.495	241.12
2039.627	238.12
2043.754	241.12
2047.878	235.12
2051.998	241.12
2056.114	238.12
2060.226	230.12
2064.334	236.12
2068.439	236.12
2072.54	246.12
2076.637	238.12
2080.73	241.12
2084.82	237.12
2088.906	243.12
2092.988	254.12
2097.066	242.12
2101.14	234.12
2105.211	238.12
2109.278	238.12
2113.342	238.12
2117.401	233.12
2121.457	229.12
2125.509	224.12
2129.558	216.12
2133.602	208.12
2137.643	210.12
2141.681	211.12
2145.714	209.12
2149.744	203.12
2153.77	201.12
2157.793	202.12
2161.812	198.12
2165.827	201.12
2169.838	190.12
2173.846	186.12
2177.851	180.12
2181.851	184.12
2185.848	189.12
2189.841	183.12
2193.831	173.12
2197.817	178.12
2201.799	176.12
2205.778	169.12
2209.753	162.12
2213.725	175.12
2217.693	173.12
2221.657	177.12
2225.618	177.12
2229.575	173.12
2233.529	170.12
2237.479	176.12
2241.425	174.12
2245.368	174.12
2249.307	167.12
2253.243	168.12
2257.175	165.12
2261.104	166.12
2265.029	149.12
2268.95	155.12
2272.868	160.12
2276.783	160.12
2280.694	141.12
2284.601	148.12
2288.505	148.12
2292.405	148.12
2296.302	143.12
2300.195	137.12
2304.085	134.12
2307.971	135.12
2311.854	136.12
2315.734	137.12
2319.609	136.12
2323.482	138.12
2327.351	138.12
2331.216	160.12
2335.078	166.12
2338.937	147.12
2342.792	132.12
2346.643	122.12
2350.492	125.12
2354.336	120.12
2358.178	117.12
2362.015	126.12
2365.85	123.12
2369.681	122.12
2373.508	123.12
2377.333	122.12
2381.153	113.12
2384.971	117.12
2388.785	118.12
2392.595	116.12
2396.402	119.12
2400.206	114.12
2404.007	115.12
2407.804	106.12
2411.597	119.12
2415.388	105.12
2419.174	114.12
2422.958	112.12
2426.738	109.12
2430.515	106.12
2434.289	119.12
2438.059	109.12
2441.825	109.12
2445.589	105.12
2449.349	96.12
2453.106	102.12
2456.859	95.12
2460.61	94.12
2464.356	95.12
2468.1	90.12
2471.84	96.12
2475.577	92.12
2479.311	93.12
2483.041	89.12
2486.768	88.12
2490.492	81.12
2494.213	85.12
2497.93	83.12
2501.644	86.12
2505.355	86.12
2509.062	88.12
2512.766	85.12
2516.467	83.12
2520.165	87.12
2523.859	86.12
2527.551	85.12
2531.239	86.12
2534.923	77.12
2538.605	88.12
2542.283	80.12
2545.958	86.12
2549.63	83.12
2553.299	84.12
2556.964	87.12
2560.626	80.12
2564.285	75.12
2567.941	83.12
2571.594	85.12
2575.243	71.12
2578.89	79.12
2582.533	78.12
2586.173	81.12
2589.809	79.12
2593.443	78.12
2597.073	72.12
2600.701	74.12
2604.325	68.12
2607.946	69.12
2611.564	69.12
2615.178	65.12
2618.79	63.12
2622.398	62.12
2626.004	61.12
2629.606	65.12
2633.205	62.12
2636.801	65.12
2640.394	63.12
2643.983	53.12
2647.57	55.12
2651.153	46.12
2654.734	52.12
2658.311	53.12
2661.885	49.12
2665.456	54.12
2669.025	46.12
2672.589	50.12
2676.151	42.12
2679.71	46.12
2683.266	54.12
2686.819	39.12
2690.368	42.12
2693.915	36.12
2697.458	39.12
2700.999	34.12
2704.536	35.12
2708.071	34.12
2711.602	25.12
2715.13	40.12
2718.656	36.12
2722.178	27.12
2725.697	29.12
2729.214	29.12
2732.727	38.12
2736.237	34.12
2739.744	33.12
2743.249	35.12
2746.75	36.12
2750.248	35.12
2753.743	33.12
2757.236	35.12
2760.725	32.12
2764.211	22.12
2767.695	37.12
2771.175	31.12
2774.652	34.12
2778.127	30.12
2781.598	28.12
2785.067	28.12
2788.532	27.12
2791.995	22.12
2795.455	23.12
2798.911	26.12
2802.365	24.12
2805.816	27.12
2809.264	22.12
2812.709	18.12
2816.151	23.12
2819.59	33.12
2823.026	24.12
2826.46	18.12
2829.89	21.12
2833.318	20.12
2836.742	27.12
2840.164	10.12
2843.583	21.12
2846.999	26.12
2850.412	14.12
2853.822	15.12
2857.229	20.12
2860.634	13.12
2864.035	17.12
2867.434	14.12
2870.83	15.12
2874.223	11.12
2877.613	8.12
2881	7.12
2884.385	9.12
2887.766	8.12
2891.145	0.12
2894.521	4.12
2897.894	6.12
2901.264	2.12
2904.631	-1.88
2907.996	-2.88
2911.358	5.12
2914.717	-0.88
2918.073	-2.88
2921.426	0.12
2924.777	-5.88
2928.124	-3.88
2931.469	-5.88
2934.811	-5.88
2938.15	-5.88
2941.487	-2.88
2944.821	-11.88
2948.152	-22.88
2951.48	-17.88
2954.805	-10.88
2958.128	-11.88
2961.447	-9.88
2964.765	-17.88
2968.079	-14.88
2971.39	-13.88
2974.699	-11.88
2978.005	-6.88
2981.308	-16.88
2984.609	-18.88
2987.907	-13.88
2991.202	-17.88
2994.494	-6.88
2997.784	-11.88
3001.07	-14.88
3004.355	-17.88
3007.636	-21.88
3010.915	-22.88
3014.191	-16.88
3017.464	-21.88
3020.734	-12.88
3024.002	-18.88
3027.267	-22.88
3030.53	-21.88
3033.789	-22.88
3037.046	-24.88
3040.301	-27.88
3043.552	-28.88
3046.801	-24.88
3050.048	-28.88
3053.291	-25.88
3056.532	-26.88
3059.771	-16.88
3063.006	-36.88
3066.239	-28.88
3069.469	-27.88
3072.697	-30.88
3075.922	-29.88
3079.144	-29.88
3082.364	-24.88
3085.581	-30.88
3088.795	-30.88
3092.007	-32.88
3095.216	-30.88
3098.423	-33.88
3101.627	-27.88
3104.828	-25.88
3108.026	-30.88
3111.222	-31.88
3114.416	-29.88
3117.607	-27.88
3120.795	-28.88
3123.98	-35.88
3127.163	-34.88
3130.344	-32.88
3133.521	-31.88
3136.696	-29.88
3139.869	-27.88
3143.039	-38.88
3146.206	-35.88
3149.371	-36.88
3152.533	-38.88
3155.693	-36.88
3158.85	-35.88
3162.005	-38.88
3165.157	-39.88
3168.306	-33.88
3171.453	-40.88
3174.597	-32.88
3177.739	-34.88
3180.878	-40.88
3184.014	-40.88
3187.149	-44.88
3190.28	-40.88
3193.409	-39.88
3196.536	-50.88
3199.659	-43.88
3202.781	-44.88
3205.9	-42.88
3209.016	-51.88
3212.13	-56.88
3215.241	-51.88
3218.35	-47.88
3221.456	-48.88
3224.56	-45.88
3227.661	-50.88
3230.76	-48.88
3233.856	-55.88
3236.95	-53.88
3240.041	-47.88
3243.13	-52.88
3246.216	-52.88
3249.3	-49.88
3252.382	-48.88
3255.46	-46.88
3258.537	-21.88
3261.611	-52.88
3264.682	-48.88
3267.751	-49.88
3270.818	-53.88
3273.882	-50.88
3276.943	-57.88
3280.002	-52.88
3283.059	-56.88
3286.113	-51.88
3289.165	-53.88
3292.214	-49.88
3295.261	-45.88
3298.306	-53.88
3301.348	-50.88
3304.387	-55.88
3307.425	-53.88
3310.459	-55.88
3313.492	-54.88
3316.521	-61.88
3319.549	-54.88
3322.574	-54.88
3325.597	-60.88
3328.617	-56.88
3331.635	-57.88
3334.65	-51.88
3337.663	-61.88
3340.674	-49.88
3343.682	-52.88
3346.688	-57.88
3349.691	-60.88
3352.692	-56.88
3355.691	-57.88
3358.687	-55.88
3361.681	-54.88
3364.673	-58.88
3367.662	-51.88
3370.649	-58.88
3373.633	-60.88
3376.615	-56.88
3379.595	-56.88
3382.572	-58.88
3385.547	-59.88
3388.52	-52.88
3391.49	-59.88
3394.458	-57.88
3397.424	-51.88
3400.387	-51.88
3403.348	-54.88
3406.307	-48.88
3409.263	-59.88
3412.217	-52.88
3415.168	-56.88
3418.118	-58.88
3421.065	-58.88
3424.009	-56.88
3426.951	-56.88
3429.891	-54.88
3432.829	-60.88
3435.764	-59.88
3438.697	-58.88
3441.628	-55.88
3444.557	-54.88
3447.483	-61.88
3450.407	-65.88
3453.328	-58.88
3456.247	-62.88
3459.164	-62.88
3462.079	-64.88
3464.991	-61.88
3467.902	-68.88
3470.809	-65.88
3473.715	-64.88
3476.618	-62.88
3479.519	-61.88
3482.418	-68.88
3485.315	-66.88
3488.209	-67.88
3491.101	-64.88
3493.99	-64.88
3496.878	-66.88
3499.763	-70.88
3502.646	-64.88
3505.527	-69.88
3508.405	-67.88
3511.281	-71.88
3514.155	-57.88
3517.027	-67.88
3519.897	-60.88
3522.764	-63.88
3525.629	-71.88
3528.492	-64.88
3531.352	-65.88
3534.211	-66.88
3537.067	-68.88
3539.921	-67.88
3542.773	-69.88
3545.622	-68.88
3548.469	-69.88
3551.315	-58.88
3554.157	-64.88
3556.998	-67.88
3559.837	-58.88
3562.673	-62.88
3565.507	-66.88
3568.339	-60.88
3571.169	-68.88
3573.996	-71.88
3576.822	-63.88
3579.645	-70.88
3582.466	-61.88
3585.285	-65.88
3588.101	-70.88
3590.916	-70.88
3593.728	-63.88
3596.538	-69.88
3599.346	-69.88
3602.152	-68.88
3604.956	-66.88
3607.757	-65.88
3610.556	-66.88
3613.354	-61.88
3616.149	-65.88
3618.942	-66.88
3621.732	-69.88
3624.521	-63.88
3627.307	-71.88
3630.092	-64.88
3632.874	-69.88
3635.654	-64.88
3638.432	-71.88
3641.208	-70.88
3643.982	-64.88
3646.753	-71.88
3649.523	-68.88
3652.29	-74.88
3655.055	-65.88
3657.818	-68.88
3660.579	-66.88
3663.338	-68.88
3666.095	-68.88
3668.849	-68.88
3671.602	-68.88
3674.352	-70.88
3677.101	-64.88
3679.847	-71.88
3682.591	-67.88
3685.333	-69.88
3688.073	-71.88
3690.811	-70.88
3693.547	-63.88
3696.281	-67.88
3699.013	-66.88
3701.742	-69.88
3704.47	-71.88
3707.195	-68.88
3709.919	-69.88
3712.64	-74.88
3715.359	-70.88
3718.076	-62.88
3720.792	-79.88
3723.505	-65.88
3726.216	-74.88
3728.925	-73.88
3731.632	-73.88
3734.336	-75.88
3737.039	-70.88
3739.74	-69.88
3742.439	-69.88
3745.136	-77.88
3747.83	-75.88
3750.523	-66.88
3753.213	-96.88
3755.902	-72.88
3758.589	-73.88
3761.273	-78.88
3763.956	-68.88
3766.636	-72.88
3769.315	-73.88
3771.991	-76.88
3774.665	-65.88
3777.338	-75.88
3780.008	-78.88
3782.677	-69.88
3785.343	-77.88
3788.007	-81.88
3790.67	-74.88
3793.33	-72.88
3795.989	-72.88
3798.645	-76.88
3801.299	-75.88
3803.952	-72.88
3806.602	-76.88
3809.251	-74.88
3811.897	-72.88
3814.542	-70.88
3817.184	-75.88
3819.825	-73.88
3822.463	-68.88
3825.1	-76.88
3827.735	-69.88
3830.367	-74.88
3832.998	-65.88
3835.627	-67.88
3838.253	-74.88
3840.878	-71.88
3843.501	-68.88
3846.122	-75.88
3848.741	-73.88
3851.358	-68.88
3853.973	-63.88
3856.586	-72.88
3859.197	-66.88
3861.806	-72.88
3864.414	-72.88
3867.019	-62.88
3869.622	-61.88
3872.224	-50.88
3874.823	-38.88
3877.421	-14.88
3880.016	21.12
3882.61	58.12
3885.202	70.12
3887.792	43.12
3890.38	-7.88
3892.966	-44.88
3895.55	-58.88
3898.132	-66.88
3900.713	-67.88
3903.291	-73.88
3905.868	-69.88
3908.442	-69.88
3911.015	-71.88
3913.586	-76.88
3916.155	-70.88
3918.722	-71.88
3921.287	-73.88
3923.85	-75.88
3926.411	-71.88
3928.971	-71.88
3931.528	-64.88
3934.084	-76.88
3936.638	-76.88
3939.19	-77.88
3941.74	-71.88
3944.288	-73.88
3946.834	-70.88
3949.378	-74.88
3951.921	-68.88
3954.462	-68.88
3957	-70.88
3959.537	-66.88
3962.072	-66.88
3964.606	-70.88
3967.137	-68.88
3969.667	-69.88
3972.194	-71.88
3974.72	-72.88
3977.244	-75.88
3979.766	-75.88
3982.286	-69.88
3984.805	-74.88
3987.321	-69.88
3989.836	-70.88
3992.349	-65.88
3994.86	-71.88
3997.369	-74.88
3999.877	-66.88
4002.382	-70.88
4004.886	-68.88
4007.388	-66.88
4009.888	-72.88
4012.386	-73.88
4014.883	-73.88
4017.377	-63.88
4019.87	-65.88
4022.361	-70.88
4024.85	-75.88
4027.338	-67.88
4029.823	-69.88
4032.307	-71.88
4034.789	-73.88
4037.269	-72.88
4039.747	-74.88
4042.224	-69.88
4044.699	-68.88
4047.172	-70.88
4049.643	-70.88
4052.112	-71.88
4054.58	-71.88
4057.046	-72.88
4059.51	-75.88
4061.972	-71.88
4064.432	-66.88
4066.891	-71.88
4069.348	-66.88
4071.803	-70.88
4074.256	-71.88
4076.708	-71.88
4079.158	-71.88
4081.606	-72.88
4084.052	-76.88
4086.497	-77.88
4088.939	-77.88
4091.38	-72.88
4093.819	-71.88
4096.257	-72.88
4098.693	-75.88
4101.127	-77.88
4103.559	-76.88
4105.989	45.12
4108.418	41.12
4110.845	38.12
4113.27	27.12
4115.694	32.12
4118.115	33.12
4120.535	-73.88
4122.954	-68.88
4125.37	-73.88
4127.785	-73.88
4130.198	-75.88
4132.609	-73.88
4135.019	-74.88
4137.427	-76.88
4139.833	-77.88
4142.237	-78.88