File: Data/Raman/2017-08-29 - Alluminum 2/Aug 29 2017 - Aluminum 2/EC 12 3_RamanShift_2.txt
Data from EC 12 3_RamanShift_2.txt Node

Date: Tue Aug 29 12:37:37 IDT 2017
User: aro
Spectrometer: QEPB0276
Trigger mode: 0
Integration Time (sec): 3.000000E1
Scans to average: 1
Electric dark correction enabled: true
Nonlinearity correction enabled: false
Boxcar width: 0
XAxis mode: Raman Shifts
Number of Pixels in Spectrum: 1044
>>>>>Begin Spectral Data<<<<<
160.701	24.25
166.742	38.25
172.777	74.25
178.805	185.25
184.826	460.25
190.841	945.25
196.849	1510.25
202.85	1910.25
208.845	2067.25
214.833	2093.25
220.815	2104.25
226.789	2145.25
232.758	2198.25
238.719	2245.25
244.674	2279.25
250.623	2309.25
256.565	2319.25
262.5	2365.25
268.429	2397.25
274.351	2431.25
280.267	2452.25
286.176	2514.25
292.079	2532.25
297.975	2582.25
303.865	2621.25
309.748	2641.25
315.625	2668.25
321.495	2675.25
327.359	2694.25
333.217	2693.25
339.068	2765.25
344.912	2763.25
350.751	2794.25
356.583	2786.25
362.408	2810.25
368.227	2865.25
374.04	3011.25
379.847	3144.25
385.647	3216.25
391.44	3143.25
397.228	3035.25
403.009	3055.25
408.784	3285.25
414.553	3742.25
420.315	4297.25
426.071	4322.25
431.821	3744.25
437.565	3240.25
443.302	3079.25
449.033	3002.25
454.758	2969.25
460.477	2912.25
466.189	2865.25
471.896	2825.25
477.596	2782.25
483.29	2761.25
488.978	2746.25
494.66	2723.25
500.335	2597.25
506.005	2434.25
511.668	2243.25
517.325	2070.25
522.977	1934.25
528.622	1816.25
534.261	1719.25
539.894	1705.25
545.521	1646.25
551.141	1638.25
556.756	1607.25
562.365	1556.25
567.968	1569.25
573.565	1577.25
579.155	1563.25
584.74	1577.25
590.319	1563.25
595.892	1545.25
601.459	1552.25
607.02	1540.25
612.575	1533.25
618.124	1512.25
623.667	1480.25
629.204	1479.25
634.735	1521.25
640.261	1622.25
645.781	1801.25
651.294	1889.25
656.802	1742.25
662.304	1523.25
667.8	1415.25
673.29	1391.25
678.775	1367.25
684.254	1340.25
689.726	1336.25
695.193	1317.25
700.655	1307.25
706.11	1296.25
711.56	1302.25
717.004	1302.25
722.442	1289.25
727.874	1304.25
733.301	1297.25
738.722	1318.25
744.137	1351.25
749.547	1388.25
754.951	1416.25
760.349	1421.25
765.741	1395.25
771.128	1360.25
776.509	1360.25
781.885	1412.25
787.254	1436.25
792.618	1432.25
797.977	1443.25
803.33	1444.25
808.677	1427.25
814.019	1419.25
819.355	1407.25
824.686	1384.25
830.011	1363.25
835.33	1355.25
840.644	1331.25
845.952	1317.25
851.255	1297.25
856.552	1268.25
861.844	1250.25
867.13	1222.25
872.41	1211.25
877.686	1207.25
882.955	1194.25
888.219	1175.25
893.478	1144.25
898.731	1138.25
903.979	1141.25
909.221	1127.25
914.458	1135.25
919.69	1132.25
924.916	1139.25
930.136	1124.25
935.351	1130.25
940.561	1140.25
945.766	1129.25
950.965	1134.25
956.158	1125.25
961.347	1096.25
966.529	1097.25
971.707	1094.25
976.879	1077.25
982.046	1059.25
987.208	1062.25
992.364	1072.25
997.515	1066.25
1002.66	1073.25
1007.801	1092.25
1012.936	1100.25
1018.066	1115.25
1023.19	1121.25
1028.309	1130.25
1033.423	1136.25
1038.532	1122.25
1043.636	1142.25
1048.734	1135.25
1053.827	1125.25
1058.915	1105.25
1063.998	1113.25
1069.075	1097.25
1074.147	1097.25
1079.214	1122.25
1084.276	1114.25
1089.333	1109.25
1094.385	1103.25
1099.431	1094.25
1104.472	1096.25
1109.509	1072.25
1114.54	1056.25
1119.565	1034.25
1124.586	1017.25
1129.602	1000.25
1134.613	1008.25
1139.618	992.25
1144.619	996.25
1149.614	1003.25
1154.604	1019.25
1159.589	1026.25
1164.57	1028.25
1169.545	1015.25
1174.515	1022.25
1179.48	1017.25
1184.44	1015.25
1189.395	1012.25
1194.345	1016.25
1199.29	995.25
1204.23	994.25
1209.165	1005.25
1214.095	1021.25
1219.021	1024.25
1223.941	1021.25
1228.856	1017.25
1233.766	1019.25
1238.672	1013.25
1243.572	1011.25
1248.467	993.25
1253.358	978.25
1258.244	965.25
1263.124	944.25
1268	920.25
1272.871	905.25
1277.737	899.25
1282.599	909.25
1287.455	903.25
1292.306	893.25
1297.153	911.25
1301.995	902.25
1306.832	917.25
1311.664	933.25
1316.491	914.25
1321.314	893.25
1326.132	891.25
1330.945	881.25
1335.753	867.25
1340.556	859.25
1345.354	837.25
1350.148	836.25
1354.937	828.25
1359.722	814.25
1364.501	826.25
1369.276	827.25
1374.046	826.25
1378.811	825.25
1383.572	840.25
1388.327	854.25
1393.079	834.25
1397.825	819.25
1402.567	800.25
1407.304	785.25
1412.036	776.25
1416.764	778.25
1421.487	773.25
1426.205	777.25
1430.919	767.25
1435.628	780.25
1440.333	791.25
1445.032	791.25
1449.727	791.25
1454.418	788.25
1459.104	788.25
1463.785	775.25
1468.462	761.25
1473.134	771.25
1477.802	748.25
1482.465	761.25
1487.123	745.25
1491.777	756.25
1496.426	761.25
1501.071	765.25
1505.711	774.25
1510.347	778.25
1514.978	803.25
1519.604	789.25
1524.226	807.25
1528.844	787.25
1533.457	784.25
1538.065	765.25
1542.669	764.25
1547.269	744.25
1551.864	759.25
1556.454	752.25
1561.041	760.25
1565.622	754.25
1570.199	730.25
1574.772	712.25
1579.34	715.25
1583.904	730.25
1588.464	707.25
1593.019	711.25
1597.569	707.25
1602.115	700.25
1606.657	680.25
1611.195	667.25
1615.728	648.25
1620.256	657.25
1624.78	653.25
1629.3	635.25
1633.816	642.25
1638.327	648.25
1642.834	660.25
1647.336	655.25
1651.834	662.25
1656.328	658.25
1660.817	653.25
1665.302	649.25
1669.783	656.25
1674.259	651.25
1678.732	635.25
1683.199	638.25
1687.663	629.25
1692.122	635.25
1696.577	621.25
1701.028	627.25
1705.474	626.25
1709.917	639.25
1714.355	640.25
1718.788	624.25
1723.218	628.25
1727.643	624.25
1732.064	609.25
1736.481	596.25
1740.893	576.25
1745.301	566.25
1749.705	553.25
1754.105	540.25
1758.501	539.25
1762.893	536.25
1767.28	526.25
1771.663	518.25
1776.042	514.25
1780.417	518.25
1784.787	511.25
1789.154	519.25
1793.516	517.25
1797.874	540.25
1802.228	539.25
1806.578	528.25
1810.924	537.25
1815.266	525.25
1819.603	513.25
1823.937	511.25
1828.266	494.25
1832.591	490.25
1836.913	483.25
1841.23	480.25
1845.543	475.25
1849.852	480.25
1854.156	476.25
1858.457	479.25
1862.754	476.25
1867.047	477.25
1871.335	488.25
1875.62	479.25
1879.9	484.25
1884.177	482.25
1888.449	475.25
1892.718	476.25
1896.982	479.25
1901.243	467.25
1905.499	462.25
1909.752	464.25
1914	476.25
1918.245	475.25
1922.485	489.25
1926.722	480.25
1930.954	474.25
1935.183	480.25
1939.408	493.25
1943.628	502.25
1947.845	483.25
1952.058	484.25
1956.267	473.25
1960.472	469.25
1964.673	451.25
1968.87	448.25
1973.063	434.25
1977.252	429.25
1981.438	420.25
1985.619	413.25
1989.797	399.25
1993.971	412.25
1998.14	400.25
2002.306	397.25
2006.469	408.25
2010.627	397.25
2014.781	401.25
2018.932	384.25
2023.078	386.25
2027.221	385.25
2031.36	384.25
2035.495	371.25
2039.627	361.25
2043.754	361.25
2047.878	373.25
2051.998	350.25
2056.114	358.25
2060.226	364.25
2064.334	361.25
2068.439	363.25
2072.54	377.25
2076.637	371.25
2080.73	385.25
2084.82	371.25
2088.906	383.25
2092.988	381.25
2097.066	379.25
2101.14	367.25
2105.211	369.25
2109.278	360.25
2113.342	364.25
2117.401	360.25
2121.457	349.25
2125.509	340.25
2129.558	349.25
2133.602	343.25
2137.643	330.25
2141.681	326.25
2145.714	326.25
2149.744	320.25
2153.77	323.25
2157.793	324.25
2161.812	315.25
2165.827	311.25
2169.838	308.25
2173.846	302.25
2177.851	300.25
2181.851	286.25
2185.848	290.25
2189.841	293.25
2193.831	285.25
2197.817	281.25
2201.799	281.25
2205.778	287.25
2209.753	271.25
2213.725	281.25
2217.693	287.25
2221.657	290.25
2225.618	284.25
2229.575	285.25
2233.529	287.25
2237.479	284.25
2241.425	277.25
2245.368	283.25
2249.307	266.25
2253.243	264.25
2257.175	268.25
2261.104	262.25
2265.029	259.25
2268.95	253.25
2272.868	263.25
2276.783	245.25
2280.694	243.25
2284.601	239.25
2288.505	250.25
2292.405	248.25
2296.302	247.25
2300.195	223.25
2304.085	240.25
2307.971	232.25
2311.854	229.25
2315.734	228.25
2319.609	227.25
2323.482	224.25
2327.351	242.25
2331.216	243.25
2335.078	266.25
2338.937	231.25
2342.792	213.25
2346.643	218.25
2350.492	213.25
2354.336	219.25
2358.178	213.25
2362.015	212.25
2365.85	213.25
2369.681	214.25
2373.508	225.25
2377.333	222.25
2381.153	216.25
2384.971	214.25
2388.785	222.25
2392.595	206.25
2396.402	211.25
2400.206	210.25
2404.007	207.25
2407.804	204.25
2411.597	209.25
2415.388	201.25
2419.174	205.25
2422.958	199.25
2426.738	204.25
2430.515	197.25
2434.289	195.25
2438.059	195.25
2441.825	191.25
2445.589	192.25
2449.349	185.25
2453.106	174.25
2456.859	189.25
2460.61	186.25
2464.356	175.25
2468.1	172.25
2471.84	169.25
2475.577	174.25
2479.311	172.25
2483.041	174.25
2486.768	175.25
2490.492	161.25
2494.213	171.25
2497.93	171.25
2501.644	168.25
2505.355	162.25
2509.062	167.25
2512.766	160.25
2516.467	161.25
2520.165	165.25
2523.859	165.25
2527.551	159.25
2531.239	160.25
2534.923	157.25
2538.605	162.25
2542.283	155.25
2545.958	168.25
2549.63	174.25
2553.299	160.25
2556.964	164.25
2560.626	154.25
2564.285	164.25
2567.941	159.25
2571.594	155.25
2575.243	155.25
2578.89	156.25
2582.533	154.25
2586.173	152.25
2589.809	148.25
2593.443	141.25
2597.073	149.25
2600.701	143.25
2604.325	146.25
2607.946	147.25
2611.564	138.25
2615.178	145.25
2618.79	133.25
2622.398	138.25
2626.004	128.25
2629.606	133.25
2633.205	133.25
2636.801	128.25
2640.394	122.25
2643.983	124.25
2647.57	123.25
2651.153	110.25
2654.734	121.25
2658.311	119.25
2661.885	106.25
2665.456	116.25
2669.025	101.25
2672.589	109.25
2676.151	112.25
2679.71	105.25
2683.266	104.25
2686.819	98.25
2690.368	100.25
2693.915	92.25
2697.458	86.25
2700.999	89.25
2704.536	87.25
2708.071	85.25
2711.602	75.25
2715.13	81.25
2718.656	74.25
2722.178	75.25
2725.697	71.25
2729.214	77.25
2732.727	84.25
2736.237	75.25
2739.744	73.25
2743.249	72.25
2746.75	72.25
2750.248	74.25
2753.743	76.25
2757.236	71.25
2760.725	77.25
2764.211	69.25
2767.695	83.25
2771.175	66.25
2774.652	75.25
2778.127	76.25
2781.598	65.25
2785.067	67.25
2788.532	74.25
2791.995	63.25
2795.455	63.25
2798.911	64.25
2802.365	60.25
2805.816	69.25
2809.264	61.25
2812.709	66.25
2816.151	56.25
2819.59	62.25
2823.026	57.25
2826.46	57.25
2829.89	57.25
2833.318	58.25
2836.742	60.25
2840.164	55.25
2843.583	52.25
2846.999	61.25
2850.412	53.25
2853.822	52.25
2857.229	60.25
2860.634	51.25
2864.035	48.25
2867.434	51.25
2870.83	55.25
2874.223	53.25
2877.613	43.25
2881	46.25
2884.385	42.25
2887.766	39.25
2891.145	45.25
2894.521	46.25
2897.894	37.25
2901.264	32.25
2904.631	33.25
2907.996	22.25
2911.358	30.25
2914.717	32.25
2918.073	33.25
2921.426	24.25
2924.777	26.25
2928.124	24.25
2931.469	27.25
2934.811	26.25
2938.15	22.25
2941.487	25.25
2944.821	25.25
2948.152	15.25
2951.48	17.25
2954.805	13.25
2958.128	15.25
2961.447	18.25
2964.765	9.25
2968.079	21.25
2971.39	8.25
2974.699	12.25
2978.005	15.25
2981.308	14.25
2984.609	4.25
2987.907	11.25
2991.202	8.25
2994.494	17.25
2997.784	10.25
3001.07	-0.75
3004.355	8.25
3007.636	10.25
3010.915	6.25
3014.191	7.25
3017.464	4.25
3020.734	10.25
3024.002	2.25
3027.267	-1.75
3030.53	-1.75
3033.789	1.25
3037.046	-0.75
3040.301	-4.75
3043.552	-8.75
3046.801	-9.75
3050.048	-9.75
3053.291	-9.75
3056.532	-11.75
3059.771	-4.75
3063.006	-11.75
3066.239	-9.75
3069.469	-10.75
3072.697	-18.75
3075.922	-19.75
3079.144	-14.75
3082.364	-17.75
3085.581	-16.75
3088.795	-20.75
3092.007	-22.75
3095.216	-14.75
3098.423	-20.75
3101.627	-14.75
3104.828	-17.75
3108.026	-23.75
3111.222	-27.75
3114.416	-17.75
3117.607	-23.75
3120.795	-22.75
3123.98	-28.75
3127.163	-21.75
3130.344	-24.75
3133.521	-18.75
3136.696	-14.75
3139.869	-19.75
3143.039	-28.75
3146.206	-32.75
3149.371	-24.75
3152.533	-21.75
3155.693	-26.75
3158.85	-30.75
3162.005	-28.75
3165.157	-33.75
3168.306	-24.75
3171.453	-31.75
3174.597	-29.75
3177.739	-28.75
3180.878	-40.75
3184.014	-42.75
3187.149	-34.75
3190.28	-38.75
3193.409	-36.75
3196.536	-38.75
3199.659	-39.75
3202.781	-42.75
3205.9	-31.75
3209.016	-47.75
3212.13	-40.75
3215.241	-38.75
3218.35	-40.75
3221.456	-42.75
3224.56	-41.75
3227.661	-48.75
3230.76	-39.75
3233.856	-47.75
3236.95	-45.75
3240.041	-43.75
3243.13	-47.75
3246.216	-42.75
3249.3	-50.75
3252.382	-46.75
3255.46	-45.75
3258.537	-19.75
3261.611	-44.75
3264.682	-41.75
3267.751	-39.75
3270.818	-47.75
3273.882	-47.75
3276.943	-50.75
3280.002	-43.75
3283.059	-55.75
3286.113	-50.75
3289.165	-42.75
3292.214	-48.75
3295.261	-41.75
3298.306	-43.75
3301.348	-50.75
3304.387	-53.75
3307.425	-52.75
3310.459	-54.75
3313.492	-53.75
3316.521	-60.75
3319.549	-53.75
3322.574	-57.75
3325.597	-60.75
3328.617	-53.75
3331.635	-55.75
3334.65	-55.75
3337.663	-57.75
3340.674	-54.75
3343.682	-55.75
3346.688	-58.75
3349.691	-60.75
3352.692	-59.75
3355.691	-56.75
3358.687	-58.75
3361.681	-58.75
3364.673	-58.75
3367.662	-54.75
3370.649	-57.75
3373.633	-50.75
3376.615	-60.75
3379.595	-61.75
3382.572	-57.75
3385.547	-55.75
3388.52	-62.75
3391.49	-57.75
3394.458	-61.75
3397.424	-53.75
3400.387	-56.75
3403.348	-59.75
3406.307	-57.75
3409.263	-57.75
3412.217	-59.75
3415.168	-58.75
3418.118	-61.75
3421.065	-60.75
3424.009	-58.75
3426.951	-65.75
3429.891	-59.75
3432.829	-56.75
3435.764	-64.75
3438.697	-60.75
3441.628	-61.75
3444.557	-64.75
3447.483	-61.75
3450.407	-66.75
3453.328	-61.75
3456.247	-69.75
3459.164	-65.75
3462.079	-60.75
3464.991	-68.75
3467.902	-71.75
3470.809	-72.75
3473.715	-68.75
3476.618	-72.75
3479.519	-62.75
3482.418	-69.75
3485.315	-74.75
3488.209	-76.75
3491.101	-68.75
3493.99	-67.75
3496.878	-70.75
3499.763	-70.75
3502.646	-65.75
3505.527	-78.75
3508.405	-76.75
3511.281	-73.75
3514.155	-70.75
3517.027	-67.75
3519.897	-66.75
3522.764	-66.75
3525.629	-76.75
3528.492	-69.75
3531.352	-70.75
3534.211	-70.75
3537.067	-74.75
3539.921	-74.75
3542.773	-72.75
3545.622	-71.75
3548.469	-68.75
3551.315	-68.75
3554.157	-66.75
3556.998	-70.75
3559.837	-65.75
3562.673	-67.75
3565.507	-72.75
3568.339	-70.75
3571.169	-75.75
3573.996	-69.75
3576.822	-67.75
3579.645	-75.75
3582.466	-71.75
3585.285	-74.75
3588.101	-77.75
3590.916	-76.75
3593.728	-73.75
3596.538	-80.75
3599.346	-77.75
3602.152	-80.75
3604.956	-73.75
3607.757	-77.75
3610.556	-71.75
3613.354	-72.75
3616.149	-79.75
3618.942	-75.75
3621.732	-73.75
3624.521	-74.75
3627.307	-78.75
3630.092	-73.75
3632.874	-78.75
3635.654	-71.75
3638.432	-73.75
3641.208	-79.75
3643.982	-72.75
3646.753	-76.75
3649.523	-74.75
3652.29	-75.75
3655.055	-76.75
3657.818	-78.75
3660.579	-75.75
3663.338	-76.75
3666.095	-76.75
3668.849	-78.75
3671.602	-71.75
3674.352	-78.75
3677.101	-74.75
3679.847	-77.75
3682.591	-76.75
3685.333	-77.75
3688.073	-76.75
3690.811	-75.75
3693.547	-69.75
3696.281	-70.75
3699.013	-73.75
3701.742	-77.75
3704.47	-80.75
3707.195	-72.75
3709.919	-74.75
3712.64	-75.75
3715.359	-74.75
3718.076	-76.75
3720.792	-75.75
3723.505	-76.75
3726.216	-79.75
3728.925	-79.75
3731.632	-76.75
3734.336	-76.75
3737.039	-74.75
3739.74	-75.75
3742.439	-72.75
3745.136	-83.75
3747.83	-74.75
3750.523	-74.75
3753.213	-99.75
3755.902	-78.75
3758.589	-76.75
3761.273	-83.75
3763.956	-73.75
3766.636	-76.75
3769.315	-77.75
3771.991	-79.75
3774.665	-75.75
3777.338	-75.75
3780.008	-81.75
3782.677	-77.75
3785.343	-80.75
3788.007	-85.75
3790.67	-76.75
3793.33	-78.75
3795.989	-76.75
3798.645	-82.75
3801.299	-78.75
3803.952	-81.75
3806.602	-83.75
3809.251	-79.75
3811.897	-82.75
3814.542	-81.75
3817.184	-80.75
3819.825	-81.75
3822.463	-81.75
3825.1	-83.75
3827.735	-77.75
3830.367	-84.75
3832.998	-74.75
3835.627	-77.75
3838.253	-76.75
3840.878	-81.75
3843.501	-80.75
3846.122	-78.75
3848.741	-81.75
3851.358	-79.75
3853.973	-74.75
3856.586	-80.75
3859.197	-74.75
3861.806	-74.75
3864.414	-71.75
3867.019	-73.75
3869.622	-69.75
3872.224	-60.75
3874.823	-51.75
3877.421	-26.75
3880.016	14.25
3882.61	36.25
3885.202	53.25
3887.792	23.25
3890.38	-16.75
3892.966	-46.75
3895.55	-65.75
3898.132	-75.75
3900.713	-76.75
3903.291	-78.75
3905.868	-80.75
3908.442	-74.75
3911.015	-74.75
3913.586	-83.75
3916.155	-79.75
3918.722	-74.75
3921.287	-74.75
3923.85	-84.75
3926.411	-78.75
3928.971	-76.75
3931.528	-74.75
3934.084	-85.75
3936.638	-75.75
3939.19	-84.75
3941.74	-78.75
3944.288	-83.75
3946.834	-77.75
3949.378	-75.75
3951.921	-76.75
3954.462	-81.75
3957	-77.75
3959.537	-74.75
3962.072	-69.75
3964.606	-76.75
3967.137	-79.75
3969.667	-76.75
3972.194	-79.75
3974.72	-79.75
3977.244	-82.75
3979.766	-83.75
3982.286	-78.75
3984.805	-73.75
3987.321	-74.75
3989.836	-78.75
3992.349	-73.75
3994.86	-78.75
3997.369	-81.75
3999.877	-75.75
4002.382	-73.75
4004.886	-76.75
4007.388	-73.75
4009.888	-78.75
4012.386	-81.75
4014.883	-76.75
4017.377	-74.75
4019.87	-76.75
4022.361	-81.75
4024.85	-83.75
4027.338	-72.75
4029.823	-80.75
4032.307	-77.75
4034.789	-79.75
4037.269	-79.75
4039.747	-81.75
4042.224	-80.75
4044.699	-76.75
4047.172	-80.75
4049.643	-75.75
4052.112	-78.75
4054.58	-86.75
4057.046	-80.75
4059.51	-81.75
4061.972	-79.75
4064.432	-74.75
4066.891	-84.75
4069.348	-81.75
4071.803	-82.75
4074.256	-75.75
4076.708	-79.75
4079.158	-79.75
4081.606	-77.75
4084.052	-78.75
4086.497	-82.75
4088.939	-81.75
4091.38	-82.75
4093.819	-81.75
4096.257	-81.75
4098.693	-82.75
4101.127	-85.75
4103.559	-81.75
4105.989	30.25
4108.418	36.25
4110.845	26.25
4113.27	15.25
4115.694	22.25
4118.115	22.25
4120.535	-79.75
4122.954	-81.75
4125.37	-82.75
4127.785	-83.75
4130.198	-78.75
4132.609	-78.75
4135.019	-78.75
4137.427	-79.75
4139.833	-78.75
4142.237	-84.75