File: Data/Raman/2017-08-29 - Alluminum 2/Aug 29 2017 - Aluminum 2/EC 110 1_RamanShift_2.txt
Data from EC 110 1_RamanShift_2.txt Node

Date: Tue Aug 29 12:08:37 IDT 2017
User: aro
Spectrometer: QEPB0276
Trigger mode: 0
Integration Time (sec): 3.000000E1
Scans to average: 1
Electric dark correction enabled: true
Nonlinearity correction enabled: false
Boxcar width: 0
XAxis mode: Raman Shifts
Number of Pixels in Spectrum: 1044
>>>>>Begin Spectral Data<<<<<
160.701	37.88
166.742	46.88
172.777	92.88
178.805	210.88
184.826	480.88
190.841	979.88
196.849	1526.88
202.85	1955.88
208.845	2090.88
214.833	2112.88
220.815	2155.88
226.789	2179.88
232.758	2261.88
238.719	2298.88
244.674	2332.88
250.623	2385.88
256.565	2442.88
262.5	2473.88
268.429	2510.88
274.351	2552.88
280.267	2616.88
286.176	2665.88
292.079	2715.88
297.975	2784.88
303.865	2811.88
309.748	2861.88
315.625	2893.88
321.495	2904.88
327.359	2978.88
333.217	2984.88
339.068	3035.88
344.912	3093.88
350.751	3127.88
356.583	3122.88
362.408	3170.88
368.227	3272.88
374.04	3440.88
379.847	3693.88
385.647	3811.88
391.44	3709.88
397.228	3497.88
403.009	3541.88
408.784	3885.88
414.553	4663.88
420.315	5588.88
426.071	5648.88
431.821	4698.88
437.565	3889.88
443.302	3631.88
449.033	3497.88
454.758	3409.88
460.477	3339.88
466.189	3234.88
471.896	3202.88
477.596	3109.88
483.29	3115.88
488.978	3087.88
494.66	3060.88
500.335	2877.88
506.005	2604.88
511.668	2303.88
517.325	2052.88
522.977	1818.88
528.622	1655.88
534.261	1542.88
539.894	1475.88
545.521	1389.88
551.141	1357.88
556.756	1329.88
562.365	1298.88
567.968	1282.88
573.565	1278.88
579.155	1303.88
584.74	1290.88
590.319	1297.88
595.892	1245.88
601.459	1267.88
607.02	1267.88
612.575	1256.88
618.124	1207.88
623.667	1191.88
629.204	1174.88
634.735	1244.88
640.261	1435.88
645.781	1737.88
651.294	1861.88
656.802	1626.88
662.304	1286.88
667.8	1104.88
673.29	1056.88
678.775	1017.88
684.254	992.88
689.726	970.88
695.193	966.88
700.655	957.88
706.11	934.88
711.56	935.88
717.004	930.88
722.442	935.88
727.874	945.88
733.301	951.88
738.722	983.88
744.137	1029.88
749.547	1129.88
754.951	1176.88
760.349	1132.88
765.741	1079.88
771.128	1075.88
776.509	1068.88
781.885	1140.88
787.254	1165.88
792.618	1195.88
797.977	1205.88
803.33	1191.88
808.677	1179.88
814.019	1161.88
819.355	1128.88
824.686	1134.88
830.011	1098.88
835.33	1074.88
840.644	1043.88
845.952	1025.88
851.255	961.88
856.552	937.88
861.844	927.88
867.13	872.88
872.41	860.88
877.686	827.88
882.955	811.88
888.219	797.88
893.478	786.88
898.731	783.88
903.979	777.88
909.221	785.88
914.458	765.88
919.69	771.88
924.916	761.88
930.136	761.88
935.351	761.88
940.561	756.88
945.766	762.88
950.965	780.88
956.158	755.88
961.347	734.88
966.529	740.88
971.707	724.88
976.879	717.88
982.046	725.88
987.208	722.88
992.364	718.88
997.515	724.88
1002.66	727.88
1007.801	736.88
1012.936	743.88
1018.066	762.88
1023.19	763.88
1028.309	771.88
1033.423	793.88
1038.532	796.88
1043.636	816.88
1048.734	811.88
1053.827	795.88
1058.915	802.88
1063.998	800.88
1069.075	809.88
1074.147	806.88
1079.214	808.88
1084.276	796.88
1089.333	786.88
1094.385	785.88
1099.431	767.88
1104.472	761.88
1109.509	726.88
1114.54	723.88
1119.565	711.88
1124.586	702.88
1129.602	681.88
1134.613	687.88
1139.618	678.88
1144.619	689.88
1149.614	686.88
1154.604	694.88
1159.589	712.88
1164.57	715.88
1169.545	725.88
1174.515	721.88
1179.48	725.88
1184.44	713.88
1189.395	723.88
1194.345	724.88
1199.29	714.88
1204.23	711.88
1209.165	713.88
1214.095	711.88
1219.021	727.88
1223.941	725.88
1228.856	725.88
1233.766	732.88
1238.672	705.88
1243.572	722.88
1248.467	707.88
1253.358	676.88
1258.244	667.88
1263.124	645.88
1268	630.88
1272.871	618.88
1277.737	601.88
1282.599	611.88
1287.455	601.88
1292.306	600.88
1297.153	610.88
1301.995	631.88
1306.832	625.88
1311.664	615.88
1316.491	624.88
1321.314	616.88
1326.132	604.88
1330.945	599.88
1335.753	602.88
1340.556	585.88
1345.354	594.88
1350.148	574.88
1354.937	586.88
1359.722	574.88
1364.501	579.88
1369.276	592.88
1374.046	562.88
1378.811	563.88
1383.572	571.88
1388.327	569.88
1393.079	565.88
1397.825	552.88
1402.567	537.88
1407.304	533.88
1412.036	521.88
1416.764	526.88
1421.487	525.88
1426.205	521.88
1430.919	524.88
1435.628	536.88
1440.333	540.88
1445.032	536.88
1449.727	548.88
1454.418	538.88
1459.104	551.88
1463.785	525.88
1468.462	540.88
1473.134	542.88
1477.802	520.88
1482.465	519.88
1487.123	524.88
1491.777	533.88
1496.426	523.88
1501.071	536.88
1505.711	559.88
1510.347	559.88
1514.978	563.88
1519.604	575.88
1524.226	565.88
1528.844	551.88
1533.457	549.88
1538.065	537.88
1542.669	533.88
1547.269	516.88
1551.864	507.88
1556.454	527.88
1561.041	539.88
1565.622	512.88
1570.199	497.88
1574.772	488.88
1579.34	495.88
1583.904	493.88
1588.464	484.88
1593.019	483.88
1597.569	488.88
1602.115	477.88
1606.657	470.88
1611.195	474.88
1615.728	456.88
1620.256	469.88
1624.78	456.88
1629.3	453.88
1633.816	454.88
1638.327	458.88
1642.834	465.88
1647.336	473.88
1651.834	472.88
1656.328	463.88
1660.817	478.88
1665.302	471.88
1669.783	466.88
1674.259	476.88
1678.732	466.88
1683.199	458.88
1687.663	465.88
1692.122	462.88
1696.577	479.88
1701.028	469.88
1705.474	464.88
1709.917	462.88
1714.355	446.88
1718.788	446.88
1723.218	444.88
1727.643	440.88
1732.064	423.88
1736.481	423.88
1740.893	409.88
1745.301	393.88
1749.705	383.88
1754.105	387.88
1758.501	376.88
1762.893	363.88
1767.28	366.88
1771.663	365.88
1776.042	364.88
1780.417	357.88
1784.787	363.88
1789.154	369.88
1793.516	366.88
1797.874	376.88
1802.228	371.88
1806.578	380.88
1810.924	359.88
1815.266	363.88
1819.603	359.88
1823.937	348.88
1828.266	339.88
1832.591	333.88
1836.913	334.88
1841.23	317.88
1845.543	320.88
1849.852	321.88
1854.156	331.88
1858.457	314.88
1862.754	318.88
1867.047	330.88
1871.335	328.88
1875.62	340.88
1879.9	329.88
1884.177	338.88
1888.449	331.88
1892.718	338.88
1896.982	326.88
1901.243	323.88
1905.499	311.88
1909.752	335.88
1914	330.88
1918.245	333.88
1922.485	339.88
1926.722	332.88
1930.954	343.88
1935.183	346.88
1939.408	339.88
1943.628	339.88
1947.845	336.88
1952.058	338.88
1956.267	329.88
1960.472	320.88
1964.673	321.88
1968.87	286.88
1973.063	299.88
1977.252	284.88
1981.438	284.88
1985.619	288.88
1989.797	266.88
1993.971	273.88
1998.14	272.88
2002.306	273.88
2006.469	271.88
2010.627	266.88
2014.781	267.88
2018.932	263.88
2023.078	265.88
2027.221	267.88
2031.36	246.88
2035.495	245.88
2039.627	244.88
2043.754	244.88
2047.878	242.88
2051.998	242.88
2056.114	245.88
2060.226	243.88
2064.334	251.88
2068.439	247.88
2072.54	251.88
2076.637	254.88
2080.73	263.88
2084.82	254.88
2088.906	259.88
2092.988	265.88
2097.066	260.88
2101.14	254.88
2105.211	247.88
2109.278	239.88
2113.342	239.88
2117.401	235.88
2121.457	234.88
2125.509	228.88
2129.558	230.88
2133.602	217.88
2137.643	212.88
2141.681	214.88
2145.714	212.88
2149.744	196.88
2153.77	219.88
2157.793	211.88
2161.812	211.88
2165.827	205.88
2169.838	198.88
2173.846	207.88
2177.851	195.88
2181.851	182.88
2185.848	193.88
2189.841	189.88
2193.831	188.88
2197.817	185.88
2201.799	179.88
2205.778	193.88
2209.753	166.88
2213.725	189.88
2217.693	184.88
2221.657	179.88
2225.618	185.88
2229.575	185.88
2233.529	183.88
2237.479	191.88
2241.425	182.88
2245.368	181.88
2249.307	184.88
2253.243	170.88
2257.175	172.88
2261.104	169.88
2265.029	167.88
2268.95	161.88
2272.868	159.88
2276.783	155.88
2280.694	155.88
2284.601	153.88
2288.505	156.88
2292.405	150.88
2296.302	141.88
2300.195	142.88
2304.085	145.88
2307.971	140.88
2311.854	141.88
2315.734	136.88
2319.609	143.88
2323.482	136.88
2327.351	138.88
2331.216	168.88
2335.078	167.88
2338.937	159.88
2342.792	128.88
2346.643	124.88
2350.492	122.88
2354.336	119.88
2358.178	125.88
2362.015	121.88
2365.85	120.88
2369.681	122.88
2373.508	121.88
2377.333	119.88
2381.153	128.88
2384.971	119.88
2388.785	119.88
2392.595	119.88
2396.402	116.88
2400.206	112.88
2404.007	118.88
2407.804	106.88
2411.597	111.88
2415.388	115.88
2419.174	117.88
2422.958	107.88
2426.738	107.88
2430.515	111.88
2434.289	114.88
2438.059	109.88
2441.825	98.88
2445.589	102.88
2449.349	93.88
2453.106	101.88
2456.859	100.88
2460.61	94.88
2464.356	87.88
2468.1	93.88
2471.84	93.88
2475.577	94.88
2479.311	97.88
2483.041	93.88
2486.768	79.88
2490.492	85.88
2494.213	88.88
2497.93	87.88
2501.644	91.88
2505.355	85.88
2509.062	92.88
2512.766	83.88
2516.467	83.88
2520.165	85.88
2523.859	85.88
2527.551	84.88
2531.239	80.88
2534.923	77.88
2538.605	84.88
2542.283	75.88
2545.958	78.88
2549.63	77.88
2553.299	85.88
2556.964	78.88
2560.626	76.88
2564.285	79.88
2567.941	88.88
2571.594	69.88
2575.243	75.88
2578.89	69.88
2582.533	72.88
2586.173	66.88
2589.809	70.88
2593.443	69.88
2597.073	62.88
2600.701	67.88
2604.325	70.88
2607.946	69.88
2611.564	64.88
2615.178	58.88
2618.79	62.88
2622.398	63.88
2626.004	57.88
2629.606	59.88
2633.205	60.88
2636.801	57.88
2640.394	61.88
2643.983	55.88
2647.57	51.88
2651.153	41.88
2654.734	50.88
2658.311	50.88
2661.885	39.88
2665.456	50.88
2669.025	31.88
2672.589	42.88
2676.151	44.88
2679.71	31.88
2683.266	43.88
2686.819	32.88
2690.368	30.88
2693.915	29.88
2697.458	37.88
2700.999	28.88
2704.536	25.88
2708.071	26.88
2711.602	20.88
2715.13	19.88
2718.656	18.88
2722.178	17.88
2725.697	19.88
2729.214	20.88
2732.727	27.88
2736.237	23.88
2739.744	19.88
2743.249	26.88
2746.75	24.88
2750.248	19.88
2753.743	18.88
2757.236	20.88
2760.725	25.88
2764.211	13.88
2767.695	26.88
2771.175	24.88
2774.652	18.88
2778.127	19.88
2781.598	13.88
2785.067	9.88
2788.532	19.88
2791.995	7.88
2795.455	15.88
2798.911	8.88
2802.365	8.88
2805.816	13.88
2809.264	5.88
2812.709	8.88
2816.151	14.88
2819.59	10.88
2823.026	16.88
2826.46	11.88
2829.89	8.88
2833.318	7.88
2836.742	18.88
2840.164	7.88
2843.583	11.88
2846.999	12.88
2850.412	6.88
2853.822	5.88
2857.229	9.88
2860.634	4.88
2864.035	9.88
2867.434	9.88
2870.83	14.88
2874.223	0.88
2877.613	-0.12
2881	-8.12
2884.385	-2.12
2887.766	-5.12
2891.145	-0.12
2894.521	-2.12
2897.894	-7.12
2901.264	-8.12
2904.631	-13.12
2907.996	-17.12
2911.358	-6.12
2914.717	-12.12
2918.073	-17.12
2921.426	-15.12
2924.777	-13.12
2928.124	-23.12
2931.469	-20.12
2934.811	-20.12
2938.15	-21.12
2941.487	-25.12
2944.821	-23.12
2948.152	-39.12
2951.48	-31.12
2954.805	-18.12
2958.128	-29.12
2961.447	-23.12
2964.765	-28.12
2968.079	-27.12
2971.39	-31.12
2974.699	-24.12
2978.005	-27.12
2981.308	-27.12
2984.609	-33.12
2987.907	-20.12
2991.202	-33.12
2994.494	-27.12
2997.784	-26.12
3001.07	-28.12
3004.355	-29.12
3007.636	-27.12
3010.915	-32.12
3014.191	-37.12
3017.464	-30.12
3020.734	-29.12
3024.002	-40.12
3027.267	-37.12
3030.53	-39.12
3033.789	-28.12
3037.046	-41.12
3040.301	-44.12
3043.552	-50.12
3046.801	-43.12
3050.048	-44.12
3053.291	-43.12
3056.532	-46.12
3059.771	-37.12
3063.006	-48.12
3066.239	-43.12
3069.469	-44.12
3072.697	-47.12
3075.922	-52.12
3079.144	-40.12
3082.364	-49.12
3085.581	-41.12
3088.795	-49.12
3092.007	-56.12
3095.216	-46.12
3098.423	-53.12
3101.627	-47.12
3104.828	-48.12
3108.026	-45.12
3111.222	-49.12
3114.416	-47.12
3117.607	-51.12
3120.795	-49.12
3123.98	-52.12
3127.163	-51.12
3130.344	-52.12
3133.521	-53.12
3136.696	-52.12
3139.869	-49.12
3143.039	-55.12
3146.206	-57.12
3149.371	-55.12
3152.533	-56.12
3155.693	-58.12
3158.85	-53.12
3162.005	-60.12
3165.157	-60.12
3168.306	-54.12
3171.453	-62.12
3174.597	-56.12
3177.739	-64.12
3180.878	-64.12
3184.014	-69.12
3187.149	-64.12
3190.28	-60.12
3193.409	-63.12
3196.536	-67.12
3199.659	-59.12
3202.781	-64.12
3205.9	-66.12
3209.016	-73.12
3212.13	-72.12
3215.241	-68.12
3218.35	-64.12
3221.456	-64.12
3224.56	-64.12
3227.661	-68.12
3230.76	-69.12
3233.856	-76.12
3236.95	-68.12
3240.041	-64.12
3243.13	-71.12
3246.216	-64.12
3249.3	-74.12
3252.382	-67.12
3255.46	-68.12
3258.537	-38.12
3261.611	-68.12
3264.682	-70.12
3267.751	-63.12
3270.818	-68.12
3273.882	-72.12
3276.943	-75.12
3280.002	-69.12
3283.059	-73.12
3286.113	-69.12
3289.165	-67.12
3292.214	-70.12
3295.261	-67.12
3298.306	-71.12
3301.348	-73.12
3304.387	-74.12
3307.425	-73.12
3310.459	-77.12
3313.492	-77.12
3316.521	-87.12
3319.549	-77.12
3322.574	-83.12
3325.597	-78.12
3328.617	-81.12
3331.635	-76.12
3334.65	-76.12
3337.663	-82.12
3340.674	-78.12
3343.682	-77.12
3346.688	-84.12
3349.691	-78.12
3352.692	-81.12
3355.691	-78.12
3358.687	-77.12
3361.681	-79.12
3364.673	-84.12
3367.662	-76.12
3370.649	-82.12
3373.633	-81.12
3376.615	-81.12
3379.595	-80.12
3382.572	-80.12
3385.547	-81.12
3388.52	-75.12
3391.49	-87.12
3394.458	-90.12
3397.424	-73.12
3400.387	-80.12
3403.348	-73.12
3406.307	-79.12
3409.263	-78.12
3412.217	-82.12
3415.168	-79.12
3418.118	-81.12
3421.065	-81.12
3424.009	-77.12
3426.951	-80.12
3429.891	-75.12
3432.829	-80.12
3435.764	-82.12
3438.697	-78.12
3441.628	-79.12
3444.557	-79.12
3447.483	-85.12
3450.407	-83.12
3453.328	-78.12
3456.247	-79.12
3459.164	-84.12
3462.079	-82.12
3464.991	-82.12
3467.902	-86.12
3470.809	-91.12
3473.715	-85.12
3476.618	-85.12
3479.519	-77.12
3482.418	-86.12
3485.315	-92.12
3488.209	-87.12
3491.101	-86.12
3493.99	-83.12
3496.878	-87.12
3499.763	-85.12
3502.646	-81.12
3505.527	-91.12
3508.405	-87.12
3511.281	-91.12
3514.155	-83.12
3517.027	-84.12
3519.897	-87.12
3522.764	-84.12
3525.629	-92.12
3528.492	-82.12
3531.352	-84.12
3534.211	-91.12
3537.067	-82.12
3539.921	-86.12
3542.773	-93.12
3545.622	-87.12
3548.469	-91.12
3551.315	-86.12
3554.157	-84.12
3556.998	-92.12
3559.837	-83.12
3562.673	-90.12
3565.507	-88.12
3568.339	-89.12
3571.169	-89.12
3573.996	-92.12
3576.822	-89.12
3579.645	-93.12
3582.466	-88.12
3585.285	-92.12
3588.101	-93.12
3590.916	-94.12
3593.728	-87.12
3596.538	-94.12
3599.346	-92.12
3602.152	-90.12
3604.956	-89.12
3607.757	-92.12
3610.556	-88.12
3613.354	-89.12
3616.149	-97.12
3618.942	-91.12
3621.732	-95.12
3624.521	-87.12
3627.307	-91.12
3630.092	-88.12
3632.874	-91.12
3635.654	-90.12
3638.432	-94.12
3641.208	-91.12
3643.982	-93.12
3646.753	-91.12
3649.523	-93.12
3652.29	-94.12
3655.055	-89.12
3657.818	-95.12
3660.579	-91.12
3663.338	-92.12
3666.095	-97.12
3668.849	-91.12
3671.602	-91.12
3674.352	-93.12
3677.101	-90.12
3679.847	-102.12
3682.591	-93.12
3685.333	-94.12
3688.073	-97.12
3690.811	-95.12
3693.547	-89.12
3696.281	-96.12
3699.013	-93.12
3701.742	-97.12
3704.47	-97.12
3707.195	-92.12
3709.919	-91.12
3712.64	-95.12
3715.359	-96.12
3718.076	-93.12
3720.792	-96.12
3723.505	-93.12
3726.216	-100.12
3728.925	-92.12
3731.632	-96.12
3734.336	-97.12
3737.039	-101.12
3739.74	-99.12
3742.439	-93.12
3745.136	-99.12
3747.83	-96.12
3750.523	-98.12
3753.213	-112.12
3755.902	-100.12
3758.589	-103.12
3761.273	-98.12
3763.956	-96.12
3766.636	-98.12
3769.315	-98.12
3771.991	-99.12
3774.665	-92.12
3777.338	79.88
3780.008	-106.12
3782.677	-94.12
3785.343	-97.12
3788.007	-102.12
3790.67	-96.12
3793.33	-98.12
3795.989	-93.12
3798.645	-99.12
3801.299	-95.12
3803.952	-94.12
3806.602	-98.12
3809.251	-102.12
3811.897	-93.12
3814.542	-96.12
3817.184	-95.12
3819.825	-92.12
3822.463	-90.12
3825.1	-99.12
3827.735	-89.12
3830.367	-102.12
3832.998	-87.12
3835.627	-93.12
3838.253	-94.12
3840.878	-96.12
3843.501	-94.12
3846.122	-96.12
3848.741	-95.12
3851.358	-93.12
3853.973	-94.12
3856.586	-99.12
3859.197	-92.12
3861.806	-95.12
3864.414	-90.12
3867.019	-87.12
3869.622	-82.12
3872.224	-73.12
3874.823	-48.12
3877.421	-20.12
3880.016	21.88
3882.61	68.88
3885.202	99.88
3887.792	63.88
3890.38	-1.12
3892.966	-53.12
3895.55	-69.12
3898.132	-89.12
3900.713	-93.12
3903.291	-97.12
3905.868	-92.12
3908.442	-98.12
3911.015	-98.12
3913.586	-99.12
3916.155	-97.12
3918.722	-95.12
3921.287	-97.12
3923.85	-102.12
3926.411	-100.12
3928.971	-98.12
3931.528	-92.12
3934.084	-98.12
3936.638	-102.12
3939.19	-95.12
3941.74	-98.12
3944.288	-102.12
3946.834	-94.12
3949.378	-90.12
3951.921	-94.12
3954.462	-92.12
3957	-91.12
3959.537	-90.12
3962.072	-84.12
3964.606	-95.12
3967.137	-91.12
3969.667	-93.12
3972.194	-96.12
3974.72	-95.12
3977.244	-98.12
3979.766	-99.12
3982.286	-91.12
3984.805	-97.12
3987.321	-97.12
3989.836	-94.12
3992.349	-91.12
3994.86	-100.12
3997.369	-94.12
3999.877	-92.12
4002.382	-94.12
4004.886	-87.12
4007.388	-95.12
4009.888	-95.12
4012.386	-97.12
4014.883	-97.12
4017.377	-94.12
4019.87	-94.12
4022.361	-97.12
4024.85	-93.12
4027.338	-91.12
4029.823	-96.12
4032.307	-94.12
4034.789	-97.12
4037.269	-96.12
4039.747	-98.12
4042.224	-91.12
4044.699	-94.12
4047.172	-94.12
4049.643	-91.12
4052.112	-94.12
4054.58	-101.12
4057.046	-91.12
4059.51	-96.12
4061.972	-92.12
4064.432	-91.12
4066.891	-96.12
4069.348	-90.12
4071.803	-94.12
4074.256	-93.12
4076.708	-94.12
4079.158	-95.12
4081.606	-94.12
4084.052	-94.12
4086.497	-95.12
4088.939	-97.12
4091.38	-91.12
4093.819	-94.12
4096.257	-98.12
4098.693	-98.12
4101.127	-94.12
4103.559	-99.12
4105.989	61.88
4108.418	55.88
4110.845	47.88
4113.27	38.88
4115.694	39.88
4118.115	40.88
4120.535	-92.12
4122.954	-89.12
4125.37	-91.12
4127.785	-101.12
4130.198	-93.12
4132.609	-95.12
4135.019	-96.12
4137.427	-98.12
4139.833	-93.12
4142.237	-101.12