File: Data/Raman/2017-08-29 - Alluminum 2/Aug 29 2017 - Aluminum 2/EC 12 2_RamanShift_1.txt
Data from EC 12 2_RamanShift_1.txt Node

Date: Tue Aug 29 12:15:07 IDT 2017
User: aro
Spectrometer: QEPB0276
Trigger mode: 0
Integration Time (sec): 3.000000E1
Scans to average: 1
Electric dark correction enabled: true
Nonlinearity correction enabled: false
Boxcar width: 0
XAxis mode: Raman Shifts
Number of Pixels in Spectrum: 1044
>>>>>Begin Spectral Data<<<<<
160.701	40.88
166.742	41.88
172.777	78.88
178.805	209.88
184.826	499.88
190.841	1012.88
196.849	1625.88
202.85	2076.88
208.845	2249.88
214.833	2294.88
220.815	2311.88
226.789	2353.88
232.758	2430.88
238.719	2514.88
244.674	2536.88
250.623	2586.88
256.565	2629.88
262.5	2657.88
268.429	2706.88
274.351	2745.88
280.267	2798.88
286.176	2833.88
292.079	2908.88
297.975	2940.88
303.865	2988.88
309.748	3021.88
315.625	3050.88
321.495	3062.88
327.359	3103.88
333.217	3107.88
339.068	3135.88
344.912	3178.88
350.751	3192.88
356.583	3206.88
362.408	3247.88
368.227	3298.88
374.04	3429.88
379.847	3610.88
385.647	3699.88
391.44	3612.88
397.228	3462.88
403.009	3489.88
408.784	3769.88
414.553	4329.88
420.315	5023.88
426.071	5040.88
431.821	4348.88
437.565	3746.88
443.302	3560.88
449.033	3449.88
454.758	3400.88
460.477	3348.88
466.189	3267.88
471.896	3241.88
477.596	3167.88
483.29	3163.88
488.978	3166.88
494.66	3094.88
500.335	2977.88
506.005	2774.88
511.668	2516.88
517.325	2342.88
522.977	2166.88
528.622	2034.88
534.261	1965.88
539.894	1878.88
545.521	1835.88
551.141	1804.88
556.756	1771.88
562.365	1755.88
567.968	1742.88
573.565	1725.88
579.155	1738.88
584.74	1738.88
590.319	1718.88
595.892	1698.88
601.459	1714.88
607.02	1716.88
612.575	1689.88
618.124	1663.88
623.667	1635.88
629.204	1624.88
634.735	1657.88
640.261	1795.88
645.781	2031.88
651.294	2109.88
656.802	1936.88
662.304	1669.88
667.8	1541.88
673.29	1489.88
678.775	1484.88
684.254	1473.88
689.726	1442.88
695.193	1432.88
700.655	1423.88
706.11	1401.88
711.56	1405.88
717.004	1398.88
722.442	1393.88
727.874	1397.88
733.301	1405.88
738.722	1425.88
744.137	1452.88
749.547	1550.88
754.951	1568.88
760.349	1539.88
765.741	1491.88
771.128	1474.88
776.509	1501.88
781.885	1529.88
787.254	1582.88
792.618	1588.88
797.977	1579.88
803.33	1570.88
808.677	1554.88
814.019	1531.88
819.355	1520.88
824.686	1493.88
830.011	1473.88
835.33	1459.88
840.644	1434.88
845.952	1418.88
851.255	1374.88
856.552	1363.88
861.844	1340.88
867.13	1325.88
872.41	1287.88
877.686	1297.88
882.955	1256.88
888.219	1221.88
893.478	1242.88
898.731	1216.88
903.979	1233.88
909.221	1219.88
914.458	1194.88
919.69	1200.88
924.916	1210.88
930.136	1211.88
935.351	1217.88
940.561	1201.88
945.766	1189.88
950.965	1189.88
956.158	1194.88
961.347	1178.88
966.529	1173.88
971.707	1151.88
976.879	1142.88
982.046	1136.88
987.208	1129.88
992.364	1127.88
997.515	1124.88
1002.66	1153.88
1007.801	1138.88
1012.936	1166.88
1018.066	1162.88
1023.19	1176.88
1028.309	1206.88
1033.423	1196.88
1038.532	1202.88
1043.636	1192.88
1048.734	1202.88
1053.827	1185.88
1058.915	1185.88
1063.998	1182.88
1069.075	1173.88
1074.147	1173.88
1079.214	1176.88
1084.276	1166.88
1089.333	1171.88
1094.385	1165.88
1099.431	1166.88
1104.472	1144.88
1109.509	1145.88
1114.54	1115.88
1119.565	1088.88
1124.586	1078.88
1129.602	1066.88
1134.613	1065.88
1139.618	1033.88
1144.619	1049.88
1149.614	1054.88
1154.604	1066.88
1159.589	1057.88
1164.57	1067.88
1169.545	1075.88
1174.515	1076.88
1179.48	1080.88
1184.44	1079.88
1189.395	1059.88
1194.345	1062.88
1199.29	1049.88
1204.23	1060.88
1209.165	1060.88
1214.095	1057.88
1219.021	1068.88
1223.941	1072.88
1228.856	1077.88
1233.766	1067.88
1238.672	1069.88
1243.572	1060.88
1248.467	1030.88
1253.358	1053.88
1258.244	998.88
1263.124	988.88
1268	977.88
1272.871	964.88
1277.737	939.88
1282.599	930.88
1287.455	939.88
1292.306	931.88
1297.153	939.88
1301.995	946.88
1306.832	959.88
1311.664	962.88
1316.491	953.88
1321.314	948.88
1326.132	937.88
1330.945	914.88
1335.753	919.88
1340.556	876.88
1345.354	871.88
1350.148	854.88
1354.937	853.88
1359.722	854.88
1364.501	860.88
1369.276	854.88
1374.046	853.88
1378.811	855.88
1383.572	842.88
1388.327	861.88
1393.079	852.88
1397.825	841.88
1402.567	807.88
1407.304	805.88
1412.036	789.88
1416.764	784.88
1421.487	793.88
1426.205	790.88
1430.919	782.88
1435.628	800.88
1440.333	820.88
1445.032	809.88
1449.727	820.88
1454.418	822.88
1459.104	814.88
1463.785	803.88
1468.462	792.88
1473.134	778.88
1477.802	772.88
1482.465	753.88
1487.123	765.88
1491.777	759.88
1496.426	764.88
1501.071	771.88
1505.711	782.88
1510.347	798.88
1514.978	793.88
1519.604	798.88
1524.226	817.88
1528.844	792.88
1533.457	792.88
1538.065	764.88
1542.669	774.88
1547.269	762.88
1551.864	756.88
1556.454	766.88
1561.041	756.88
1565.622	738.88
1570.199	730.88
1574.772	720.88
1579.34	723.88
1583.904	719.88
1588.464	717.88
1593.019	713.88
1597.569	712.88
1602.115	681.88
1606.657	684.88
1611.195	676.88
1615.728	661.88
1620.256	667.88
1624.78	659.88
1629.3	659.88
1633.816	658.88
1638.327	657.88
1642.834	662.88
1647.336	663.88
1651.834	672.88
1656.328	669.88
1660.817	667.88
1665.302	674.88
1669.783	659.88
1674.259	663.88
1678.732	647.88
1683.199	647.88
1687.663	632.88
1692.122	619.88
1696.577	634.88
1701.028	630.88
1705.474	622.88
1709.917	637.88
1714.355	638.88
1718.788	639.88
1723.218	624.88
1727.643	613.88
1732.064	594.88
1736.481	585.88
1740.893	576.88
1745.301	575.88
1749.705	554.88
1754.105	549.88
1758.501	528.88
1762.893	523.88
1767.28	521.88
1771.663	513.88
1776.042	521.88
1780.417	500.88
1784.787	495.88
1789.154	512.88
1793.516	520.88
1797.874	527.88
1802.228	533.88
1806.578	528.88
1810.924	516.88
1815.266	518.88
1819.603	503.88
1823.937	491.88
1828.266	485.88
1832.591	479.88
1836.913	481.88
1841.23	476.88
1845.543	475.88
1849.852	475.88
1854.156	478.88
1858.457	459.88
1862.754	474.88
1867.047	478.88
1871.335	476.88
1875.62	478.88
1879.9	467.88
1884.177	474.88
1888.449	473.88
1892.718	463.88
1896.982	465.88
1901.243	454.88
1905.499	449.88
1909.752	461.88
1914	455.88
1918.245	451.88
1922.485	478.88
1926.722	472.88
1930.954	470.88
1935.183	471.88
1939.408	479.88
1943.628	482.88
1947.845	473.88
1952.058	461.88
1956.267	468.88
1960.472	458.88
1964.673	440.88
1968.87	431.88
1973.063	421.88
1977.252	411.88
1981.438	410.88
1985.619	403.88
1989.797	384.88
1993.971	406.88
1998.14	391.88
2002.306	390.88
2006.469	378.88
2010.627	391.88
2014.781	384.88
2018.932	384.88
2023.078	375.88
2027.221	370.88
2031.36	364.88
2035.495	366.88
2039.627	349.88
2043.754	351.88
2047.878	358.88
2051.998	348.88
2056.114	344.88
2060.226	339.88
2064.334	357.88
2068.439	352.88
2072.54	353.88
2076.637	352.88
2080.73	358.88
2084.82	361.88
2088.906	372.88
2092.988	364.88
2097.066	361.88
2101.14	350.88
2105.211	352.88
2109.278	352.88
2113.342	351.88
2117.401	338.88
2121.457	328.88
2125.509	337.88
2129.558	330.88
2133.602	312.88
2137.643	323.88
2141.681	309.88
2145.714	320.88
2149.744	312.88
2153.77	309.88
2157.793	316.88
2161.812	297.88
2165.827	298.88
2169.838	295.88
2173.846	297.88
2177.851	294.88
2181.851	276.88
2185.848	280.88
2189.841	274.88
2193.831	270.88
2197.817	278.88
2201.799	271.88
2205.778	262.88
2209.753	269.88
2213.725	271.88
2217.693	264.88
2221.657	262.88
2225.618	267.88
2229.575	260.88
2233.529	274.88
2237.479	269.88
2241.425	265.88
2245.368	260.88
2249.307	252.88
2253.243	245.88
2257.175	249.88
2261.104	249.88
2265.029	248.88
2268.95	236.88
2272.868	245.88
2276.783	239.88
2280.694	229.88
2284.601	226.88
2288.505	234.88
2292.405	222.88
2296.302	220.88
2300.195	219.88
2304.085	213.88
2307.971	204.88
2311.854	213.88
2315.734	213.88
2319.609	208.88
2323.482	211.88
2327.351	217.88
2331.216	235.88
2335.078	243.88
2338.937	217.88
2342.792	199.88
2346.643	191.88
2350.492	198.88
2354.336	198.88
2358.178	197.88
2362.015	193.88
2365.85	197.88
2369.681	194.88
2373.508	200.88
2377.333	208.88
2381.153	197.88
2384.971	196.88
2388.785	193.88
2392.595	187.88
2396.402	189.88
2400.206	191.88
2404.007	181.88
2407.804	183.88
2411.597	183.88
2415.388	182.88
2419.174	189.88
2422.958	173.88
2426.738	183.88
2430.515	175.88
2434.289	173.88
2438.059	176.88
2441.825	169.88
2445.589	169.88
2449.349	161.88
2453.106	159.88
2456.859	165.88
2460.61	161.88
2464.356	153.88
2468.1	161.88
2471.84	153.88
2475.577	152.88
2479.311	144.88
2483.041	151.88
2486.768	145.88
2490.492	144.88
2494.213	145.88
2497.93	151.88
2501.644	144.88
2505.355	143.88
2509.062	147.88
2512.766	147.88
2516.467	150.88
2520.165	144.88
2523.859	145.88
2527.551	139.88
2531.239	147.88
2534.923	138.88
2538.605	139.88
2542.283	138.88
2545.958	150.88
2549.63	146.88
2553.299	143.88
2556.964	143.88
2560.626	138.88
2564.285	144.88
2567.941	136.88
2571.594	142.88
2575.243	126.88
2578.89	135.88
2582.533	138.88
2586.173	137.88
2589.809	127.88
2593.443	134.88
2597.073	131.88
2600.701	129.88
2604.325	127.88
2607.946	118.88
2611.564	109.88
2615.178	113.88
2618.79	117.88
2622.398	112.88
2626.004	108.88
2629.606	108.88
2633.205	111.88
2636.801	107.88
2640.394	102.88
2643.983	104.88
2647.57	98.88
2651.153	95.88
2654.734	100.88
2658.311	96.88
2661.885	82.88
2665.456	89.88
2669.025	87.88
2672.589	83.88
2676.151	84.88
2679.71	80.88
2683.266	87.88
2686.819	73.88
2690.368	76.88
2693.915	75.88
2697.458	65.88
2700.999	67.88
2704.536	69.88
2708.071	66.88
2711.602	59.88
2715.13	59.88
2718.656	56.88
2722.178	51.88
2725.697	53.88
2729.214	55.88
2732.727	56.88
2736.237	59.88
2739.744	55.88
2743.249	57.88
2746.75	54.88
2750.248	56.88
2753.743	58.88
2757.236	55.88
2760.725	60.88
2764.211	51.88
2767.695	60.88
2771.175	53.88
2774.652	56.88
2778.127	53.88
2781.598	46.88
2785.067	49.88
2788.532	45.88
2791.995	38.88
2795.455	45.88
2798.911	49.88
2802.365	47.88
2805.816	50.88
2809.264	43.88
2812.709	44.88
2816.151	45.88
2819.59	43.88
2823.026	51.88
2826.46	42.88
2829.89	35.88
2833.318	38.88
2836.742	49.88
2840.164	44.88
2843.583	36.88
2846.999	49.88
2850.412	36.88
2853.822	45.88
2857.229	44.88
2860.634	39.88
2864.035	35.88
2867.434	37.88
2870.83	38.88
2874.223	32.88
2877.613	30.88
2881	22.88
2884.385	30.88
2887.766	23.88
2891.145	22.88
2894.521	27.88
2897.894	19.88
2901.264	18.88
2904.631	18.88
2907.996	11.88
2911.358	15.88
2914.717	7.88
2918.073	6.88
2921.426	10.88
2924.777	7.88
2928.124	8.88
2931.469	8.88
2934.811	5.88
2938.15	2.88
2941.487	2.88
2944.821	0.88
2948.152	-1.12
2951.48	-0.12
2954.805	4.88
2958.128	-4.12
2961.447	-5.12
2964.765	-4.12
2968.079	-3.12
2971.39	-10.12
2974.699	-5.12
2978.005	-5.12
2981.308	-6.12
2984.609	-6.12
2987.907	1.88
2991.202	-9.12
2994.494	-3.12
2997.784	-3.12
3001.07	-2.12
3004.355	-9.12
3007.636	-4.12
3010.915	-12.12
3014.191	-18.12
3017.464	-17.12
3020.734	-15.12
3024.002	-19.12
3027.267	-15.12
3030.53	-19.12
3033.789	-19.12
3037.046	-18.12
3040.301	-22.12
3043.552	-25.12
3046.801	-26.12
3050.048	-29.12
3053.291	-19.12
3056.532	-25.12
3059.771	-23.12
3063.006	-32.12
3066.239	-30.12
3069.469	-27.12
3072.697	-38.12
3075.922	-31.12
3079.144	-19.12
3082.364	-33.12
3085.581	-33.12
3088.795	-36.12
3092.007	-41.12
3095.216	-39.12
3098.423	-38.12
3101.627	-23.12
3104.828	-33.12
3108.026	-34.12
3111.222	-36.12
3114.416	-34.12
3117.607	-39.12
3120.795	-39.12
3123.98	-41.12
3127.163	-38.12
3130.344	-34.12
3133.521	-38.12
3136.696	-34.12
3139.869	-38.12
3143.039	-46.12
3146.206	-49.12
3149.371	-44.12
3152.533	-41.12
3155.693	-44.12
3158.85	-45.12
3162.005	-48.12
3165.157	-47.12
3168.306	-34.12
3171.453	-45.12
3174.597	-45.12
3177.739	-45.12
3180.878	-52.12
3184.014	-51.12
3187.149	-46.12
3190.28	-47.12
3193.409	-45.12
3196.536	-59.12
3199.659	-54.12
3202.781	-55.12
3205.9	-53.12
3209.016	-63.12
3212.13	-59.12
3215.241	-56.12
3218.35	-52.12
3221.456	-58.12
3224.56	-56.12
3227.661	-57.12
3230.76	-57.12
3233.856	-63.12
3236.95	-61.12
3240.041	-60.12
3243.13	-63.12
3246.216	-57.12
3249.3	-64.12
3252.382	-62.12
3255.46	-58.12
3258.537	-27.12
3261.611	-59.12
3264.682	-57.12
3267.751	-59.12
3270.818	-64.12
3273.882	-63.12
3276.943	-64.12
3280.002	-66.12
3283.059	-67.12
3286.113	-61.12
3289.165	-63.12
3292.214	-71.12
3295.261	-64.12
3298.306	-65.12
3301.348	-70.12
3304.387	-68.12
3307.425	-43.12
3310.459	76.88
3313.492	-57.12
3316.521	-73.12
3319.549	-65.12
3322.574	-77.12
3325.597	-74.12
3328.617	-68.12
3331.635	-71.12
3334.65	-67.12
3337.663	-77.12
3340.674	-68.12
3343.682	-72.12
3346.688	-74.12
3349.691	-68.12
3352.692	-72.12
3355.691	-71.12
3358.687	-72.12
3361.681	-70.12
3364.673	-75.12
3367.662	-70.12
3370.649	-71.12
3373.633	-71.12
3376.615	-73.12
3379.595	-69.12
3382.572	-71.12
3385.547	-71.12
3388.52	-67.12
3391.49	-74.12
3394.458	-77.12
3397.424	-71.12
3400.387	-73.12
3403.348	-70.12
3406.307	-72.12
3409.263	-73.12
3412.217	-72.12
3415.168	-77.12
3418.118	-70.12
3421.065	-74.12
3424.009	-76.12
3426.951	-75.12
3429.891	-77.12
3432.829	-75.12
3435.764	-77.12
3438.697	-78.12
3441.628	-75.12
3444.557	-70.12
3447.483	-79.12
3450.407	-80.12
3453.328	-74.12
3456.247	-73.12
3459.164	-79.12
3462.079	-82.12
3464.991	-83.12
3467.902	-88.12
3470.809	-83.12
3473.715	-85.12
3476.618	-87.12
3479.519	-80.12
3482.418	-84.12
3485.315	-82.12
3488.209	-87.12
3491.101	-84.12
3493.99	-81.12
3496.878	-84.12
3499.763	-87.12
3502.646	-79.12
3505.527	-87.12
3508.405	-86.12
3511.281	-85.12
3514.155	-84.12
3517.027	-86.12
3519.897	-85.12
3522.764	-76.12
3525.629	-88.12
3528.492	-84.12
3531.352	-82.12
3534.211	-87.12
3537.067	-82.12
3539.921	-81.12
3542.773	-92.12
3545.622	-83.12
3548.469	-85.12
3551.315	-82.12
3554.157	-79.12
3556.998	-82.12
3559.837	-79.12
3562.673	-85.12
3565.507	-83.12
3568.339	-84.12
3571.169	-84.12
3573.996	-84.12
3576.822	-77.12
3579.645	-88.12
3582.466	-84.12
3585.285	-86.12
3588.101	-90.12
3590.916	-86.12
3593.728	-83.12
3596.538	-89.12
3599.346	-86.12
3602.152	-85.12
3604.956	-86.12
3607.757	-86.12
3610.556	-88.12
3613.354	-82.12
3616.149	-91.12
3618.942	-84.12
3621.732	-85.12
3624.521	-85.12
3627.307	-87.12
3630.092	-87.12
3632.874	-86.12
3635.654	-81.12
3638.432	-86.12
3641.208	-88.12
3643.982	-82.12
3646.753	-81.12
3649.523	-87.12
3652.29	-89.12
3655.055	-91.12
3657.818	-91.12
3660.579	-94.12
3663.338	-86.12
3666.095	-92.12
3668.849	-91.12
3671.602	-90.12
3674.352	-89.12
3677.101	-90.12
3679.847	-92.12
3682.591	-92.12
3685.333	-90.12
3688.073	-92.12
3690.811	-90.12
3693.547	-86.12
3696.281	-90.12
3699.013	-86.12
3701.742	-92.12
3704.47	-90.12
3707.195	-91.12
3709.919	-90.12
3712.64	-92.12
3715.359	-93.12
3718.076	-86.12
3720.792	-94.12
3723.505	-89.12
3726.216	-95.12
3728.925	-98.12
3731.632	-92.12
3734.336	-89.12
3737.039	-95.12
3739.74	-91.12
3742.439	-88.12
3745.136	-88.12
3747.83	-87.12
3750.523	-90.12
3753.213	-113.12
3755.902	-94.12
3758.589	-88.12
3761.273	-98.12
3763.956	-90.12
3766.636	-89.12
3769.315	-90.12
3771.991	-90.12
3774.665	-89.12
3777.338	-91.12
3780.008	-99.12
3782.677	-93.12
3785.343	-93.12
3788.007	-95.12
3790.67	-89.12
3793.33	-88.12
3795.989	-92.12
3798.645	-95.12
3801.299	-96.12
3803.952	-92.12
3806.602	-99.12
3809.251	-91.12
3811.897	-88.12
3814.542	-92.12
3817.184	-90.12
3819.825	-90.12
3822.463	-91.12
3825.1	-94.12
3827.735	-88.12
3830.367	-92.12
3832.998	-84.12
3835.627	-88.12
3838.253	-91.12
3840.878	-87.12
3843.501	-90.12
3846.122	-93.12
3848.741	-92.12
3851.358	-86.12
3853.973	-90.12
3856.586	-93.12
3859.197	-84.12
3861.806	-87.12
3864.414	-87.12
3867.019	-79.12
3869.622	-80.12
3872.224	-69.12
3874.823	-49.12
3877.421	-25.12
3880.016	14.88
3882.61	51.88
3885.202	64.88
3887.792	37.88
3890.38	-17.12
3892.966	-55.12
3895.55	-68.12
3898.132	-94.12
3900.713	-84.12
3903.291	-96.12
3905.868	-92.12
3908.442	-92.12
3911.015	-93.12
3913.586	-96.12
3916.155	-91.12
3918.722	-90.12
3921.287	-95.12
3923.85	-97.12
3926.411	-92.12
3928.971	-96.12
3931.528	-92.12
3934.084	-93.12
3936.638	-94.12
3939.19	-99.12
3941.74	-95.12
3944.288	-100.12
3946.834	-91.12
3949.378	-93.12
3951.921	-90.12
3954.462	-90.12
3957	-88.12
3959.537	-89.12
3962.072	-87.12
3964.606	-93.12
3967.137	-91.12
3969.667	-92.12
3972.194	-95.12
3974.72	-94.12
3977.244	-91.12
3979.766	-93.12
3982.286	-89.12
3984.805	-92.12
3987.321	-95.12
3989.836	-90.12
3992.349	-90.12
3994.86	-85.12
3997.369	-95.12
3999.877	-86.12
4002.382	-88.12
4004.886	-87.12
4007.388	-85.12
4009.888	-89.12
4012.386	-91.12
4014.883	-86.12
4017.377	-83.12
4019.87	-86.12
4022.361	-94.12
4024.85	-95.12
4027.338	-90.12
4029.823	-90.12
4032.307	-87.12
4034.789	-92.12
4037.269	-91.12
4039.747	-94.12
4042.224	-94.12
4044.699	-88.12
4047.172	-86.12
4049.643	-87.12
4052.112	-88.12
4054.58	-93.12
4057.046	-93.12
4059.51	-96.12
4061.972	-93.12
4064.432	-89.12
4066.891	-100.12
4069.348	-90.12
4071.803	-89.12
4074.256	-88.12
4076.708	-95.12
4079.158	-97.12
4081.606	-89.12
4084.052	-92.12
4086.497	-97.12
4088.939	-100.12
4091.38	-93.12
4093.819	-90.12
4096.257	-94.12
4098.693	-93.12
4101.127	-96.12
4103.559	-97.12
4105.989	42.88
4108.418	44.88
4110.845	37.88
4113.27	33.88
4115.694	29.88
4118.115	27.88
4120.535	-88.12
4122.954	-93.12
4125.37	-90.12
4127.785	-90.12
4130.198	-91.12
4132.609	-91.12
4135.019	-92.12
4137.427	-91.12
4139.833	-91.12
4142.237	-97.12