File: Data/Raman/2017-08-29 - Alluminum 2/Aug 29 2017 - Aluminum 2/EC 11 3_RamanShift_2.txt
Data from EC 11 3_RamanShift_2.txt Node

Date: Tue Aug 29 12:41:37 IDT 2017
User: aro
Spectrometer: QEPB0276
Trigger mode: 0
Integration Time (sec): 3.000000E1
Scans to average: 1
Electric dark correction enabled: true
Nonlinearity correction enabled: false
Boxcar width: 0
XAxis mode: Raman Shifts
Number of Pixels in Spectrum: 1044
>>>>>Begin Spectral Data<<<<<
160.701	16.88
166.742	38.88
172.777	116.88
178.805	353.88
184.826	909.88
190.841	1870.88
196.849	3000.88
202.85	3897.88
208.845	4275.88
214.833	4357.88
220.815	4477.88
226.789	4588.88
232.758	4732.88
238.719	4870.88
244.674	4977.88
250.623	5037.88
256.565	5048.88
262.5	5126.88
268.429	5192.88
274.351	5311.88
280.267	5358.88
286.176	5443.88
292.079	5465.88
297.975	5552.88
303.865	5617.88
309.748	5673.88
315.625	5700.88
321.495	5700.88
327.359	5714.88
333.217	5713.88
339.068	5745.88
344.912	5742.88
350.751	5769.88
356.583	5787.88
362.408	5829.88
368.227	5858.88
374.04	5984.88
379.847	6087.88
385.647	6193.88
391.44	6124.88
397.228	5991.88
403.009	6047.88
408.784	6245.88
414.553	6676.88
420.315	7221.88
426.071	7230.88
431.821	6693.88
437.565	6213.88
443.302	6062.88
449.033	5995.88
454.758	5927.88
460.477	5874.88
466.189	5803.88
471.896	5792.88
477.596	5738.88
483.29	5717.88
488.978	5697.88
494.66	5703.88
500.335	5539.88
506.005	5401.88
511.668	5179.88
517.325	4998.88
522.977	4893.88
528.622	4745.88
534.261	4717.88
539.894	4616.88
545.521	4574.88
551.141	4557.88
556.756	4530.88
562.365	4462.88
567.968	4442.88
573.565	4481.88
579.155	4488.88
584.74	4469.88
590.319	4439.88
595.892	4421.88
601.459	4423.88
607.02	4396.88
612.575	4366.88
618.124	4321.88
623.667	4287.88
629.204	4263.88
634.735	4288.88
640.261	4420.88
645.781	4567.88
651.294	4674.88
656.802	4480.88
662.304	4279.88
667.8	4168.88
673.29	4127.88
678.775	4116.88
684.254	4104.88
689.726	4050.88
695.193	4037.88
700.655	4012.88
706.11	4005.88
711.56	4022.88
717.004	3977.88
722.442	3964.88
727.874	3960.88
733.301	3956.88
738.722	3994.88
744.137	4013.88
749.547	4059.88
754.951	4074.88
760.349	4064.88
765.741	4004.88
771.128	3997.88
776.509	3995.88
781.885	4020.88
787.254	4046.88
792.618	4039.88
797.977	4043.88
803.33	4037.88
808.677	4033.88
814.019	3984.88
819.355	3935.88
824.686	3943.88
830.011	3917.88
835.33	3898.88
840.644	3874.88
845.952	3882.88
851.255	3843.88
856.552	3859.88
861.844	3808.88
867.13	3796.88
872.41	3808.88
877.686	3754.88
882.955	3719.88
888.219	3684.88
893.478	3664.88
898.731	3649.88
903.979	3610.88
909.221	3587.88
914.458	3596.88
919.69	3604.88
924.916	3610.88
930.136	3609.88
935.351	3619.88
940.561	3597.88
945.766	3622.88
950.965	3587.88
956.158	3580.88
961.347	3556.88
966.529	3484.88
971.707	3444.88
976.879	3418.88
982.046	3361.88
987.208	3363.88
992.364	3375.88
997.515	3405.88
1002.66	3406.88
1007.801	3440.88
1012.936	3475.88
1018.066	3482.88
1023.19	3537.88
1028.309	3517.88
1033.423	3494.88
1038.532	3486.88
1043.636	3459.88
1048.734	3426.88
1053.827	3418.88
1058.915	3349.88
1063.998	3310.88
1069.075	3323.88
1074.147	3309.88
1079.214	3326.88
1084.276	3343.88
1089.333	3352.88
1094.385	3372.88
1099.431	3375.88
1104.472	3359.88
1109.509	3332.88
1114.54	3275.88
1119.565	3239.88
1124.586	3182.88
1129.602	3153.88
1134.613	3142.88
1139.618	3130.88
1144.619	3114.88
1149.614	3142.88
1154.604	3145.88
1159.589	3148.88
1164.57	3153.88
1169.545	3140.88
1174.515	3164.88
1179.48	3132.88
1184.44	3101.88
1189.395	3067.88
1194.345	3067.88
1199.29	3034.88
1204.23	3032.88
1209.165	3061.88
1214.095	3067.88
1219.021	3078.88
1223.941	3107.88
1228.856	3113.88
1233.766	3107.88
1238.672	3089.88
1243.572	3080.88
1248.467	3049.88
1253.358	2996.88
1258.244	2961.88
1263.124	2910.88
1268	2860.88
1272.871	2825.88
1277.737	2788.88
1282.599	2801.88
1287.455	2786.88
1292.306	2792.88
1297.153	2782.88
1301.995	2797.88
1306.832	2793.88
1311.664	2811.88
1316.491	2790.88
1321.314	2762.88
1326.132	2718.88
1330.945	2685.88
1335.753	2596.88
1340.556	2548.88
1345.354	2513.88
1350.148	2450.88
1354.937	2430.88
1359.722	2455.88
1364.501	2435.88
1369.276	2470.88
1374.046	2494.88
1378.811	2527.88
1383.572	2548.88
1388.327	2546.88
1393.079	2581.88
1397.825	2497.88
1402.567	2452.88
1407.304	2417.88
1412.036	2395.88
1416.764	2369.88
1421.487	2357.88
1426.205	2350.88
1430.919	2331.88
1435.628	2368.88
1440.333	2361.88
1445.032	2363.88
1449.727	2369.88
1454.418	2356.88
1459.104	2322.88
1463.785	2277.88
1468.462	2236.88
1473.134	2212.88
1477.802	2157.88
1482.465	2144.88
1487.123	2144.88
1491.777	2135.88
1496.426	2142.88
1501.071	2186.88
1505.711	2194.88
1510.347	2230.88
1514.978	2277.88
1519.604	2294.88
1524.226	2301.88
1528.844	2294.88
1533.457	2280.88
1538.065	2257.88
1542.669	2220.88
1547.269	2227.88
1551.864	2190.88
1556.454	2191.88
1561.041	2193.88
1565.622	2165.88
1570.199	2135.88
1574.772	2118.88
1579.34	2118.88
1583.904	2108.88
1588.464	2089.88
1593.019	2076.88
1597.569	2033.88
1602.115	1997.88
1606.657	1980.88
1611.195	1948.88
1615.728	1890.88
1620.256	1896.88
1624.78	1850.88
1629.3	1849.88
1633.816	1846.88
1638.327	1854.88
1642.834	1847.88
1647.336	1862.88
1651.834	1844.88
1656.328	1860.88
1660.817	1874.88
1665.302	1874.88
1669.783	1830.88
1674.259	1828.88
1678.732	1790.88
1683.199	1772.88
1687.663	1724.88
1692.122	1695.88
1696.577	1682.88
1701.028	1707.88
1705.474	1746.88
1709.917	1754.88
1714.355	1806.88
1718.788	1800.88
1723.218	1797.88
1727.643	1773.88
1732.064	1734.88
1736.481	1729.88
1740.893	1678.88
1745.301	1639.88
1749.705	1594.88
1754.105	1566.88
1758.501	1527.88
1762.893	1484.88
1767.28	1446.88
1771.663	1430.88
1776.042	1402.88
1780.417	1393.88
1784.787	1396.88
1789.154	1416.88
1793.516	1447.88
1797.874	1482.88
1802.228	1510.88
1806.578	1519.88
1810.924	1517.88
1815.266	1493.88
1819.603	1474.88
1823.937	1444.88
1828.266	1423.88
1832.591	1413.88
1836.913	1389.88
1841.23	1374.88
1845.543	1356.88
1849.852	1344.88
1854.156	1366.88
1858.457	1345.88
1862.754	1352.88
1867.047	1347.88
1871.335	1351.88
1875.62	1336.88
1879.9	1346.88
1884.177	1332.88
1888.449	1323.88
1892.718	1303.88
1896.982	1301.88
1901.243	1280.88
1905.499	1264.88
1909.752	1279.88
1914	1278.88
1918.245	1276.88
1922.485	1303.88
1926.722	1312.88
1930.954	1356.88
1935.183	1359.88
1939.408	1372.88
1943.628	1378.88
1947.845	1356.88
1952.058	1351.88
1956.267	1325.88
1960.472	1313.88
1964.673	1286.88
1968.87	1258.88
1973.063	1228.88
1977.252	1200.88
1981.438	1174.88
1985.619	1170.88
1989.797	1166.88
1993.971	1151.88
1998.14	1138.88
2002.306	1125.88
2006.469	1115.88
2010.627	1116.88
2014.781	1099.88
2018.932	1105.88
2023.078	1068.88
2027.221	1059.88
2031.36	1033.88
2035.495	1027.88
2039.627	1020.88
2043.754	1008.88
2047.878	992.88
2051.998	985.88
2056.114	978.88
2060.226	988.88
2064.334	984.88
2068.439	993.88
2072.54	996.88
2076.637	988.88
2080.73	1029.88
2084.82	1012.88
2088.906	1034.88
2092.988	1016.88
2097.066	1021.88
2101.14	1005.88
2105.211	1006.88
2109.278	999.88
2113.342	989.88
2117.401	985.88
2121.457	985.88
2125.509	965.88
2129.558	964.88
2133.602	954.88
2137.643	941.88
2141.681	936.88
2145.714	941.88
2149.744	916.88
2153.77	908.88
2157.793	902.88
2161.812	898.88
2165.827	886.88
2169.838	868.88
2173.846	864.88
2177.851	853.88
2181.851	834.88
2185.848	836.88
2189.841	813.88
2193.831	802.88
2197.817	805.88
2201.799	799.88
2205.778	799.88
2209.753	789.88
2213.725	796.88
2217.693	801.88
2221.657	801.88
2225.618	804.88
2229.575	795.88
2233.529	791.88
2237.479	786.88
2241.425	769.88
2245.368	762.88
2249.307	756.88
2253.243	750.88
2257.175	732.88
2261.104	732.88
2265.029	714.88
2268.95	709.88
2272.868	720.88
2276.783	700.88
2280.694	699.88
2284.601	697.88
2288.505	686.88
2292.405	688.88
2296.302	676.88
2300.195	677.88
2304.085	665.88
2307.971	656.88
2311.854	651.88
2315.734	650.88
2319.609	639.88
2323.482	632.88
2327.351	645.88
2331.216	661.88
2335.078	672.88
2338.937	634.88
2342.792	611.88
2346.643	609.88
2350.492	613.88
2354.336	610.88
2358.178	614.88
2362.015	617.88
2365.85	615.88
2369.681	625.88
2373.508	611.88
2377.333	612.88
2381.153	617.88
2384.971	609.88
2388.785	606.88
2392.595	610.88
2396.402	606.88
2400.206	588.88
2404.007	587.88
2407.804	584.88
2411.597	590.88
2415.388	588.88
2419.174	582.88
2422.958	572.88
2426.738	586.88
2430.515	576.88
2434.289	573.88
2438.059	567.88
2441.825	558.88
2445.589	545.88
2449.349	545.88
2453.106	542.88
2456.859	542.88
2460.61	535.88
2464.356	522.88
2468.1	513.88
2471.84	503.88
2475.577	497.88
2479.311	509.88
2483.041	502.88
2486.768	492.88
2490.492	495.88
2494.213	494.88
2497.93	493.88
2501.644	492.88
2505.355	486.88
2509.062	485.88
2512.766	485.88
2516.467	490.88
2520.165	482.88
2523.859	468.88
2527.551	472.88
2531.239	476.88
2534.923	475.88
2538.605	467.88
2542.283	462.88
2545.958	467.88
2549.63	461.88
2553.299	468.88
2556.964	467.88
2560.626	467.88
2564.285	453.88
2567.941	458.88
2571.594	463.88
2575.243	451.88
2578.89	453.88
2582.533	448.88
2586.173	443.88
2589.809	447.88
2593.443	433.88
2597.073	429.88
2600.701	429.88
2604.325	430.88
2607.946	413.88
2611.564	419.88
2615.178	410.88
2618.79	404.88
2622.398	401.88
2626.004	386.88
2629.606	398.88
2633.205	384.88
2636.801	376.88
2640.394	358.88
2643.983	368.88
2647.57	367.88
2651.153	352.88
2654.734	348.88
2658.311	336.88
2661.885	343.88
2665.456	330.88
2669.025	333.88
2672.589	325.88
2676.151	318.88
2679.71	310.88
2683.266	313.88
2686.819	306.88
2690.368	301.88
2693.915	287.88
2697.458	276.88
2700.999	283.88
2704.536	265.88
2708.071	266.88
2711.602	254.88
2715.13	242.88
2718.656	239.88
2722.178	225.88
2725.697	228.88
2729.214	231.88
2732.727	233.88
2736.237	229.88
2739.744	218.88
2743.249	228.88
2746.75	227.88
2750.248	225.88
2753.743	234.88
2757.236	234.88
2760.725	234.88
2764.211	228.88
2767.695	229.88
2771.175	232.88
2774.652	227.88
2778.127	229.88
2781.598	228.88
2785.067	220.88
2788.532	220.88
2791.995	213.88
2795.455	211.88
2798.911	210.88
2802.365	197.88
2805.816	213.88
2809.264	199.88
2812.709	204.88
2816.151	202.88
2819.59	205.88
2823.026	197.88
2826.46	199.88
2829.89	198.88
2833.318	192.88
2836.742	194.88
2840.164	192.88
2843.583	190.88
2846.999	191.88
2850.412	187.88
2853.822	188.88
2857.229	186.88
2860.634	181.88
2864.035	180.88
2867.434	179.88
2870.83	180.88
2874.223	177.88
2877.613	169.88
2881	167.88
2884.385	150.88
2887.766	154.88
2891.145	154.88
2894.521	156.88
2897.894	143.88
2901.264	128.88
2904.631	125.88
2907.996	123.88
2911.358	131.88
2914.717	128.88
2918.073	123.88
2921.426	118.88
2924.777	117.88
2928.124	108.88
2931.469	112.88
2934.811	103.88
2938.15	100.88
2941.487	101.88
2944.821	102.88
2948.152	88.88
2951.48	86.88
2954.805	89.88
2958.128	82.88
2961.447	73.88
2964.765	74.88
2968.079	79.88
2971.39	73.88
2974.699	74.88
2978.005	70.88
2981.308	69.88
2984.609	69.88
2987.907	78.88
2991.202	71.88
2994.494	77.88
2997.784	74.88
3001.07	68.88
3004.355	64.88
3007.636	65.88
3010.915	62.88
3014.191	65.88
3017.464	56.88
3020.734	52.88
3024.002	49.88
3027.267	47.88
3030.53	43.88
3033.789	42.88
3037.046	47.88
3040.301	29.88
3043.552	32.88
3046.801	29.88
3050.048	26.88
3053.291	27.88
3056.532	27.88
3059.771	31.88
3063.006	22.88
3066.239	19.88
3069.469	25.88
3072.697	10.88
3075.922	11.88
3079.144	17.88
3082.364	13.88
3085.581	18.88
3088.795	15.88
3092.007	8.88
3095.216	15.88
3098.423	11.88
3101.627	15.88
3104.828	9.88
3108.026	10.88
3111.222	-5.12
3114.416	10.88
3117.607	1.88
3120.795	8.88
3123.98	0.88
3127.163	1.88
3130.344	3.88
3133.521	-7.12
3136.696	6.88
3139.869	3.88
3143.039	-7.12
3146.206	-10.12
3149.371	-5.12
3152.533	-9.12
3155.693	-13.12
3158.85	-11.12
3162.005	-15.12
3165.157	-18.12
3168.306	-10.12
3171.453	-21.12
3174.597	-17.12
3177.739	-24.12
3180.878	-28.12
3184.014	-30.12
3187.149	-30.12
3190.28	-29.12
3193.409	-34.12
3196.536	-43.12
3199.659	-44.12
3202.781	-45.12
3205.9	-45.12
3209.016	-56.12
3212.13	-54.12
3215.241	-44.12
3218.35	-48.12
3221.456	-54.12
3224.56	-50.12
3227.661	-50.12
3230.76	-56.12
3233.856	-54.12
3236.95	-62.12
3240.041	-54.12
3243.13	-60.12
3246.216	-57.12
3249.3	-60.12
3252.382	-61.12
3255.46	-54.12
3258.537	-35.12
3261.611	-62.12
3264.682	-60.12
3267.751	-56.12
3270.818	-58.12
3273.882	-62.12
3276.943	-59.12
3280.002	-58.12
3283.059	-64.12
3286.113	-62.12
3289.165	-64.12
3292.214	-67.12
3295.261	-61.12
3298.306	-69.12
3301.348	-70.12
3304.387	-70.12
3307.425	-65.12
3310.459	-74.12
3313.492	-76.12
3316.521	-82.12
3319.549	-75.12
3322.574	-81.12
3325.597	-83.12
3328.617	-73.12
3331.635	-78.12
3334.65	-74.12
3337.663	-88.12
3340.674	-75.12
3343.682	-82.12
3346.688	-79.12
3349.691	-81.12
3352.692	-85.12
3355.691	-86.12
3358.687	-83.12
3361.681	-84.12
3364.673	-83.12
3367.662	-84.12
3370.649	-87.12
3373.633	-81.12
3376.615	-89.12
3379.595	-89.12
3382.572	-87.12
3385.547	-81.12
3388.52	-80.12
3391.49	-89.12
3394.458	-91.12
3397.424	-88.12
3400.387	-88.12
3403.348	-83.12
3406.307	-88.12
3409.263	-88.12
3412.217	-92.12
3415.168	-91.12
3418.118	-92.12
3421.065	-94.12
3424.009	-89.12
3426.951	-95.12
3429.891	-96.12
3432.829	-96.12
3435.764	-96.12
3438.697	-92.12
3441.628	-97.12
3444.557	-90.12
3447.483	-98.12
3450.407	-101.12
3453.328	-89.12
3456.247	-97.12
3459.164	-101.12
3462.079	-99.12
3464.991	-103.12
3467.902	-102.12
3470.809	-104.12
3473.715	-105.12
3476.618	-107.12
3479.519	-97.12
3482.418	-108.12
3485.315	-107.12
3488.209	-106.12
3491.101	-100.12
3493.99	-103.12
3496.878	-105.12
3499.763	-103.12
3502.646	-103.12
3505.527	-117.12
3508.405	-105.12
3511.281	-111.12
3514.155	-103.12
3517.027	-107.12
3519.897	-107.12
3522.764	-104.12
3525.629	-110.12
3528.492	-109.12
3531.352	-105.12
3534.211	-111.12
3537.067	-106.12
3539.921	-99.12
3542.773	-113.12
3545.622	-109.12
3548.469	-109.12
3551.315	-104.12
3554.157	-108.12
3556.998	-111.12
3559.837	-108.12
3562.673	-112.12
3565.507	-112.12
3568.339	-111.12
3571.169	-113.12
3573.996	-111.12
3576.822	-109.12
3579.645	-119.12
3582.466	-112.12
3585.285	-120.12
3588.101	-117.12
3590.916	-122.12
3593.728	-109.12
3596.538	-119.12
3599.346	-117.12
3602.152	-119.12
3604.956	-119.12
3607.757	-116.12
3610.556	-115.12
3613.354	-115.12
3616.149	-123.12
3618.942	-119.12
3621.732	-117.12
3624.521	-119.12
3627.307	-118.12
3630.092	-118.12
3632.874	-125.12
3635.654	-120.12
3638.432	-123.12
3641.208	-118.12
3643.982	-122.12
3646.753	-120.12
3649.523	-125.12
3652.29	-124.12
3655.055	-123.12
3657.818	-125.12
3660.579	-123.12
3663.338	-122.12
3666.095	-126.12
3668.849	-121.12
3671.602	-123.12
3674.352	-126.12
3677.101	-118.12
3679.847	-128.12
3682.591	-117.12
3685.333	-121.12
3688.073	-126.12
3690.811	-120.12
3693.547	-121.12
3696.281	-121.12
3699.013	-125.12
3701.742	-120.12
3704.47	-123.12
3707.195	-122.12
3709.919	-120.12
3712.64	-128.12
3715.359	-121.12
3718.076	-122.12
3720.792	-124.12
3723.505	-120.12
3726.216	-129.12
3728.925	-125.12
3731.632	-128.12
3734.336	-127.12
3737.039	-124.12
3739.74	-122.12
3742.439	-120.12
3745.136	-122.12
3747.83	-129.12
3750.523	-121.12
3753.213	-148.12
3755.902	-123.12
3758.589	-120.12
3761.273	-128.12
3763.956	-125.12
3766.636	-119.12
3769.315	-127.12
3771.991	-125.12
3774.665	-118.12
3777.338	-125.12
3780.008	-131.12
3782.677	-121.12
3785.343	-124.12
3788.007	-126.12
3790.67	-121.12
3793.33	-126.12
3795.989	-122.12
3798.645	-128.12
3801.299	-128.12
3803.952	-124.12
3806.602	-126.12
3809.251	-128.12
3811.897	-124.12
3814.542	-122.12
3817.184	-122.12
3819.825	-124.12
3822.463	-127.12
3825.1	-128.12
3827.735	-124.12
3830.367	-134.12
3832.998	-123.12
3835.627	-123.12
3838.253	-128.12
3840.878	-120.12
3843.501	-125.12
3846.122	-127.12
3848.741	-130.12
3851.358	-126.12
3853.973	-117.12
3856.586	-132.12
3859.197	-123.12
3861.806	-126.12
3864.414	-120.12
3867.019	-117.12
3869.622	-120.12
3872.224	-112.12
3874.823	-98.12
3877.421	-81.12
3880.016	-52.12
3882.61	-33.12
3885.202	-12.12
3887.792	-35.12
3890.38	-66.12
3892.966	-101.12
3895.55	-118.12
3898.132	-124.12
3900.713	-125.12
3903.291	-132.12
3905.868	-127.12
3908.442	-132.12
3911.015	-130.12
3913.586	-135.12
3916.155	-131.12
3918.722	-129.12
3921.287	-127.12
3923.85	-136.12
3926.411	-129.12
3928.971	-134.12
3931.528	-126.12
3934.084	-134.12
3936.638	-128.12
3939.19	-133.12
3941.74	-131.12
3944.288	-133.12
3946.834	-125.12
3949.378	-131.12
3951.921	-127.12
3954.462	-129.12
3957	-126.12
3959.537	-129.12
3962.072	-120.12
3964.606	-131.12
3967.137	-126.12
3969.667	-127.12
3972.194	-129.12
3974.72	-131.12
3977.244	-123.12
3979.766	-131.12
3982.286	-127.12
3984.805	-134.12
3987.321	-126.12
3989.836	-127.12
3992.349	-128.12
3994.86	-127.12
3997.369	-125.12
3999.877	-124.12
4002.382	-124.12
4004.886	-120.12
4007.388	-117.12
4009.888	-124.12
4012.386	-122.12
4014.883	-127.12
4017.377	-121.12
4019.87	-119.12
4022.361	-118.12
4024.85	-124.12
4027.338	-117.12
4029.823	-125.12
4032.307	-126.12
4034.789	-122.12
4037.269	-123.12
4039.747	-129.12
4042.224	-123.12
4044.699	-121.12
4047.172	-122.12
4049.643	-120.12
4052.112	-122.12
4054.58	-128.12
4057.046	-123.12
4059.51	-127.12
4061.972	-119.12
4064.432	-122.12
4066.891	-123.12
4069.348	-119.12
4071.803	-125.12
4074.256	-123.12
4076.708	-123.12
4079.158	-127.12
4081.606	-125.12
4084.052	-130.12
4086.497	-126.12
4088.939	-125.12
4091.38	-127.12
4093.819	-124.12
4096.257	-129.12
4098.693	-136.12
4101.127	-131.12
4103.559	-132.12
4105.989	6.88
4108.418	3.88
4110.845	-4.12
4113.27	-10.12
4115.694	-7.12
4118.115	9.88
4120.535	-126.12
4122.954	-121.12
4125.37	-128.12
4127.785	-124.12
4130.198	-121.12
4132.609	-130.12
4135.019	-130.12
4137.427	-131.12
4139.833	-133.12
4142.237	-132.12