File: Data/Raman/2017-08-29 - Alluminum 2/Aug 29 2017 - Aluminum 2/EC 12 2_RamanShift_2.txt
Data from EC 12 2_RamanShift_2.txt Node

Date: Tue Aug 29 12:15:37 IDT 2017
User: aro
Spectrometer: QEPB0276
Trigger mode: 0
Integration Time (sec): 3.000000E1
Scans to average: 1
Electric dark correction enabled: true
Nonlinearity correction enabled: false
Boxcar width: 0
XAxis mode: Raman Shifts
Number of Pixels in Spectrum: 1044
>>>>>Begin Spectral Data<<<<<
160.701	34.12
166.742	47.12
172.777	80.12
178.805	199.12
184.826	483.12
190.841	988.12
196.849	1566.12
202.85	2006.12
208.845	2175.12
214.833	2195.12
220.815	2215.12
226.789	2295.12
232.758	2363.12
238.719	2414.12
244.674	2481.12
250.623	2493.12
256.565	2529.12
262.5	2590.12
268.429	2610.12
274.351	2648.12
280.267	2725.12
286.176	2732.12
292.079	2799.12
297.975	2831.12
303.865	2870.12
309.748	2937.12
315.625	2915.12
321.495	2975.12
327.359	2988.12
333.217	2992.12
339.068	3043.12
344.912	3057.12
350.751	3090.12
356.583	3107.12
362.408	3141.12
368.227	3201.12
374.04	3336.12
379.847	3523.12
385.647	3636.12
391.44	3507.12
397.228	3419.12
403.009	3410.12
408.784	3666.12
414.553	4257.12
420.315	4889.12
426.071	4937.12
431.821	4245.12
437.565	3633.12
443.302	3465.12
449.033	3353.12
454.758	3311.12
460.477	3259.12
466.189	3179.12
471.896	3099.12
477.596	3083.12
483.29	3061.12
488.978	3074.12
494.66	2989.12
500.335	2894.12
506.005	2673.12
511.668	2434.12
517.325	2239.12
522.977	2058.12
528.622	1927.12
534.261	1853.12
539.894	1790.12
545.521	1730.12
551.141	1714.12
556.756	1692.12
562.365	1654.12
567.968	1652.12
573.565	1640.12
579.155	1656.12
584.74	1653.12
590.319	1627.12
595.892	1616.12
601.459	1610.12
607.02	1610.12
612.575	1601.12
618.124	1555.12
623.667	1541.12
629.204	1529.12
634.735	1585.12
640.261	1720.12
645.781	1931.12
651.294	2003.12
656.802	1866.12
662.304	1576.12
667.8	1457.12
673.29	1425.12
678.775	1379.12
684.254	1367.12
689.726	1353.12
695.193	1344.12
700.655	1344.12
706.11	1326.12
711.56	1335.12
717.004	1314.12
722.442	1324.12
727.874	1305.12
733.301	1322.12
738.722	1349.12
744.137	1371.12
749.547	1449.12
754.951	1498.12
760.349	1469.12
765.741	1421.12
771.128	1399.12
776.509	1419.12
781.885	1459.12
787.254	1479.12
792.618	1515.12
797.977	1511.12
803.33	1487.12
808.677	1486.12
814.019	1470.12
819.355	1441.12
824.686	1435.12
830.011	1402.12
835.33	1390.12
840.644	1377.12
845.952	1357.12
851.255	1304.12
856.552	1293.12
861.844	1265.12
867.13	1250.12
872.41	1215.12
877.686	1192.12
882.955	1192.12
888.219	1178.12
893.478	1176.12
898.731	1149.12
903.979	1132.12
909.221	1136.12
914.458	1146.12
919.69	1128.12
924.916	1147.12
930.136	1131.12
935.351	1143.12
940.561	1131.12
945.766	1122.12
950.965	1130.12
956.158	1133.12
961.347	1105.12
966.529	1103.12
971.707	1082.12
976.879	1071.12
982.046	1064.12
987.208	1052.12
992.364	1053.12
997.515	1089.12
1002.66	1084.12
1007.801	1086.12
1012.936	1088.12
1018.066	1095.12
1023.19	1122.12
1028.309	1139.12
1033.423	1117.12
1038.532	1143.12
1043.636	1144.12
1048.734	1153.12
1053.827	1132.12
1058.915	1108.12
1063.998	1104.12
1069.075	1126.12
1074.147	1105.12
1079.214	1114.12
1084.276	1117.12
1089.333	1099.12
1094.385	1082.12
1099.431	1110.12
1104.472	1082.12
1109.509	1075.12
1114.54	1034.12
1119.565	1029.12
1124.586	1009.12
1129.602	1010.12
1134.613	1000.12
1139.618	998.12
1144.619	992.12
1149.614	990.12
1154.604	1019.12
1159.589	1009.12
1164.57	1024.12
1169.545	1022.12
1174.515	1031.12
1179.48	1028.12
1184.44	1021.12
1189.395	996.12
1194.345	1021.12
1199.29	998.12
1204.23	1001.12
1209.165	1008.12
1214.095	1003.12
1219.021	1032.12
1223.941	1011.12
1228.856	1032.12
1233.766	1028.12
1238.672	1015.12
1243.572	1010.12
1248.467	1000.12
1253.358	984.12
1258.244	963.12
1263.124	952.12
1268	922.12
1272.871	901.12
1277.737	895.12
1282.599	892.12
1287.455	889.12
1292.306	899.12
1297.153	908.12
1301.995	892.12
1306.832	919.12
1311.664	913.12
1316.491	898.12
1321.314	894.12
1326.132	897.12
1330.945	871.12
1335.753	874.12
1340.556	843.12
1345.354	834.12
1350.148	836.12
1354.937	820.12
1359.722	815.12
1364.501	817.12
1369.276	813.12
1374.046	815.12
1378.811	824.12
1383.572	822.12
1388.327	815.12
1393.079	815.12
1397.825	799.12
1402.567	792.12
1407.304	761.12
1412.036	764.12
1416.764	755.12
1421.487	757.12
1426.205	753.12
1430.919	759.12
1435.628	766.12
1440.333	774.12
1445.032	771.12
1449.727	780.12
1454.418	768.12
1459.104	767.12
1463.785	754.12
1468.462	750.12
1473.134	751.12
1477.802	733.12
1482.465	737.12
1487.123	722.12
1491.777	724.12
1496.426	728.12
1501.071	730.12
1505.711	761.12
1510.347	764.12
1514.978	777.12
1519.604	760.12
1524.226	775.12
1528.844	773.12
1533.457	752.12
1538.065	749.12
1542.669	737.12
1547.269	718.12
1551.864	733.12
1556.454	728.12
1561.041	731.12
1565.622	726.12
1570.199	699.12
1574.772	693.12
1579.34	698.12
1583.904	696.12
1588.464	685.12
1593.019	688.12
1597.569	686.12
1602.115	663.12
1606.657	653.12
1611.195	652.12
1615.728	635.12
1620.256	648.12
1624.78	620.12
1629.3	636.12
1633.816	619.12
1638.327	628.12
1642.834	624.12
1647.336	647.12
1651.834	643.12
1656.328	631.12
1660.817	656.12
1665.302	648.12
1669.783	641.12
1674.259	635.12
1678.732	636.12
1683.199	630.12
1687.663	619.12
1692.122	612.12
1696.577	618.12
1701.028	607.12
1705.474	614.12
1709.917	619.12
1714.355	614.12
1718.788	608.12
1723.218	604.12
1727.643	590.12
1732.064	595.12
1736.481	570.12
1740.893	570.12
1745.301	558.12
1749.705	528.12
1754.105	528.12
1758.501	517.12
1762.893	505.12
1767.28	503.12
1771.663	496.12
1776.042	492.12
1780.417	485.12
1784.787	483.12
1789.154	501.12
1793.516	497.12
1797.874	504.12
1802.228	512.12
1806.578	513.12
1810.924	517.12
1815.266	498.12
1819.603	491.12
1823.937	475.12
1828.266	470.12
1832.591	460.12
1836.913	461.12
1841.23	467.12
1845.543	454.12
1849.852	454.12
1854.156	446.12
1858.457	447.12
1862.754	449.12
1867.047	458.12
1871.335	457.12
1875.62	454.12
1879.9	446.12
1884.177	460.12
1888.449	465.12
1892.718	453.12
1896.982	457.12
1901.243	441.12
1905.499	435.12
1909.752	448.12
1914	448.12
1918.245	459.12
1922.485	457.12
1926.722	455.12
1930.954	458.12
1935.183	460.12
1939.408	472.12
1943.628	460.12
1947.845	475.12
1952.058	467.12
1956.267	460.12
1960.472	446.12
1964.673	436.12
1968.87	414.12
1973.063	405.12
1977.252	404.12
1981.438	397.12
1985.619	376.12
1989.797	377.12
1993.971	372.12
1998.14	375.12
2002.306	371.12
2006.469	373.12
2010.627	374.12
2014.781	364.12
2018.932	370.12
2023.078	359.12
2027.221	359.12
2031.36	352.12
2035.495	351.12
2039.627	335.12
2043.754	346.12
2047.878	334.12
2051.998	337.12
2056.114	337.12
2060.226	343.12
2064.334	340.12
2068.439	346.12
2072.54	352.12
2076.637	359.12
2080.73	347.12
2084.82	351.12
2088.906	355.12
2092.988	360.12
2097.066	361.12
2101.14	346.12
2105.211	340.12
2109.278	330.12
2113.342	338.12
2117.401	338.12
2121.457	324.12
2125.509	327.12
2129.558	317.12
2133.602	317.12
2137.643	314.12
2141.681	303.12
2145.714	302.12
2149.744	296.12
2153.77	306.12
2157.793	299.12
2161.812	295.12
2165.827	300.12
2169.838	293.12
2173.846	285.12
2177.851	281.12
2181.851	280.12
2185.848	279.12
2189.841	265.12
2193.831	272.12
2197.817	262.12
2201.799	268.12
2205.778	264.12
2209.753	256.12
2213.725	265.12
2217.693	268.12
2221.657	265.12
2225.618	264.12
2229.575	264.12
2233.529	253.12
2237.479	257.12
2241.425	259.12
2245.368	262.12
2249.307	243.12
2253.243	249.12
2257.175	238.12
2261.104	238.12
2265.029	229.12
2268.95	222.12
2272.868	233.12
2276.783	229.12
2280.694	227.12
2284.601	217.12
2288.505	216.12
2292.405	214.12
2296.302	215.12
2300.195	207.12
2304.085	214.12
2307.971	200.12
2311.854	200.12
2315.734	198.12
2319.609	203.12
2323.482	195.12
2327.351	216.12
2331.216	230.12
2335.078	236.12
2338.937	219.12
2342.792	194.12
2346.643	189.12
2350.492	184.12
2354.336	187.12
2358.178	189.12
2362.015	192.12
2365.85	194.12
2369.681	197.12
2373.508	190.12
2377.333	197.12
2381.153	193.12
2384.971	189.12
2388.785	193.12
2392.595	189.12
2396.402	181.12
2400.206	184.12
2404.007	182.12
2407.804	177.12
2411.597	190.12
2415.388	171.12
2419.174	181.12
2422.958	178.12
2426.738	180.12
2430.515	179.12
2434.289	177.12
2438.059	177.12
2441.825	169.12
2445.589	166.12
2449.349	153.12
2453.106	163.12
2456.859	160.12
2460.61	165.12
2464.356	153.12
2468.1	153.12
2471.84	153.12
2475.577	154.12
2479.311	141.12
2483.041	152.12
2486.768	146.12
2490.492	143.12
2494.213	144.12
2497.93	152.12
2501.644	146.12
2505.355	139.12
2509.062	150.12
2512.766	138.12
2516.467	146.12
2520.165	138.12
2523.859	133.12
2527.551	137.12
2531.239	137.12
2534.923	136.12
2538.605	144.12
2542.283	136.12
2545.958	136.12
2549.63	134.12
2553.299	140.12
2556.964	140.12
2560.626	131.12
2564.285	132.12
2567.941	131.12
2571.594	135.12
2575.243	125.12
2578.89	135.12
2582.533	137.12
2586.173	134.12
2589.809	129.12
2593.443	123.12
2597.073	126.12
2600.701	126.12
2604.325	126.12
2607.946	122.12
2611.564	116.12
2615.178	115.12
2618.79	110.12
2622.398	113.12
2626.004	113.12
2629.606	108.12
2633.205	104.12
2636.801	101.12
2640.394	106.12
2643.983	101.12
2647.57	93.12
2651.153	97.12
2654.734	93.12
2658.311	99.12
2661.885	95.12
2665.456	89.12
2669.025	82.12
2672.589	87.12
2676.151	88.12
2679.71	77.12
2683.266	82.12
2686.819	75.12
2690.368	80.12
2693.915	67.12
2697.458	76.12
2700.999	65.12
2704.536	67.12
2708.071	71.12
2711.602	59.12
2715.13	60.12
2718.656	58.12
2722.178	55.12
2725.697	50.12
2729.214	54.12
2732.727	58.12
2736.237	59.12
2739.744	53.12
2743.249	60.12
2746.75	59.12
2750.248	54.12
2753.743	55.12
2757.236	59.12
2760.725	59.12
2764.211	50.12
2767.695	70.12
2771.175	51.12
2774.652	56.12
2778.127	47.12
2781.598	51.12
2785.067	49.12
2788.532	53.12
2791.995	42.12
2795.455	46.12
2798.911	45.12
2802.365	38.12
2805.816	50.12
2809.264	35.12
2812.709	45.12
2816.151	42.12
2819.59	45.12
2823.026	48.12
2826.46	41.12
2829.89	40.12
2833.318	43.12
2836.742	44.12
2840.164	37.12
2843.583	44.12
2846.999	46.12
2850.412	40.12
2853.822	34.12
2857.229	44.12
2860.634	42.12
2864.035	29.12
2867.434	42.12
2870.83	42.12
2874.223	37.12
2877.613	30.12
2881	30.12
2884.385	28.12
2887.766	27.12
2891.145	23.12
2894.521	27.12
2897.894	22.12
2901.264	22.12
2904.631	17.12
2907.996	15.12
2911.358	14.12
2914.717	16.12
2918.073	12.12
2921.426	15.12
2924.777	15.12
2928.124	10.12
2931.469	11.12
2934.811	15.12
2938.15	11.12
2941.487	11.12
2944.821	9.12
2948.152	-1.88
2951.48	-1.88
2954.805	8.12
2958.128	4.12
2961.447	3.12
2964.765	-1.88
2968.079	-3.88
2971.39	0.12
2974.699	-5.88
2978.005	0.12
2981.308	1.12
2984.609	1.12
2987.907	-4.88
2991.202	-5.88
2994.494	1.12
2997.784	-1.88
3001.07	-4.88
3004.355	-6.88
3007.636	-4.88
3010.915	-11.88
3014.191	-11.88
3017.464	-14.88
3020.734	-12.88
3024.002	-12.88
3027.267	-15.88
3030.53	-15.88
3033.789	-19.88
3037.046	-16.88
3040.301	-25.88
3043.552	-22.88
3046.801	-23.88
3050.048	-24.88
3053.291	-28.88
3056.532	-22.88
3059.771	-19.88
3063.006	-30.88
3066.239	-26.88
3069.469	-23.88
3072.697	-33.88
3075.922	-25.88
3079.144	-28.88
3082.364	-34.88
3085.581	-29.88
3088.795	-31.88
3092.007	-33.88
3095.216	-30.88
3098.423	-32.88
3101.627	-32.88
3104.828	-29.88
3108.026	-32.88
3111.222	-38.88
3114.416	-29.88
3117.607	-33.88
3120.795	-31.88
3123.98	-35.88
3127.163	-36.88
3130.344	-33.88
3133.521	-33.88
3136.696	-32.88
3139.869	-36.88
3143.039	-39.88
3146.206	-32.88
3149.371	-39.88
3152.533	-38.88
3155.693	-37.88
3158.85	-36.88
3162.005	-40.88
3165.157	-39.88
3168.306	-34.88
3171.453	-42.88
3174.597	-34.88
3177.739	-42.88
3180.878	-49.88
3184.014	-45.88
3187.149	-46.88
3190.28	-44.88
3193.409	-41.88
3196.536	-55.88
3199.659	-43.88
3202.781	-51.88
3205.9	-50.88
3209.016	-60.88
3212.13	-53.88
3215.241	-55.88
3218.35	-52.88
3221.456	-50.88
3224.56	-47.88
3227.661	-51.88
3230.76	-56.88
3233.856	-57.88
3236.95	-57.88
3240.041	-55.88
3243.13	-60.88
3246.216	-52.88
3249.3	-61.88
3252.382	-58.88
3255.46	-58.88
3258.537	-27.88
3261.611	-54.88
3264.682	-56.88
3267.751	-50.88
3270.818	-61.88
3273.882	-60.88
3276.943	-63.88
3280.002	-57.88
3283.059	-59.88
3286.113	-59.88
3289.165	-58.88
3292.214	-60.88
3295.261	-59.88
3298.306	-62.88
3301.348	-66.88
3304.387	-63.88
3307.425	-61.88
3310.459	-71.88
3313.492	-67.88
3316.521	-72.88
3319.549	-64.88
3322.574	-69.88
3325.597	-72.88
3328.617	-62.88
3331.635	-66.88
3334.65	-68.88
3337.663	-68.88
3340.674	-66.88
3343.682	-63.88
3346.688	-71.88
3349.691	-72.88
3352.692	-66.88
3355.691	-70.88
3358.687	-69.88
3361.681	-70.88
3364.673	-68.88
3367.662	-67.88
3370.649	-70.88
3373.633	-65.88
3376.615	-65.88
3379.595	-66.88
3382.572	-70.88
3385.547	-66.88
3388.52	-62.88
3391.49	-70.88
3394.458	-71.88
3397.424	-68.88
3400.387	-64.88
3403.348	-65.88
3406.307	-65.88
3409.263	-74.88
3412.217	-69.88
3415.168	-70.88
3418.118	-66.88
3421.065	-71.88
3424.009	-69.88
3426.951	-73.88
3429.891	-72.88
3432.829	-74.88
3435.764	-78.88
3438.697	-75.88
3441.628	-72.88
3444.557	-73.88
3447.483	-76.88
3450.407	-76.88
3453.328	-73.88
3456.247	-75.88
3459.164	-74.88
3462.079	-72.88
3464.991	-76.88
3467.902	-78.88
3470.809	-76.88
3473.715	-76.88
3476.618	-76.88
3479.519	-68.88
3482.418	-77.88
3485.315	-76.88
3488.209	-79.88
3491.101	-73.88
3493.99	-77.88
3496.878	-76.88
3499.763	-82.88
3502.646	-74.88
3505.527	-84.88
3508.405	-78.88
3511.281	-80.88
3514.155	-77.88
3517.027	-74.88
3519.897	-83.88
3522.764	-71.88
3525.629	-75.88
3528.492	-75.88
3531.352	-77.88
3534.211	-72.88
3537.067	-79.88
3539.921	-76.88
3542.773	-83.88
3545.622	-79.88
3548.469	-80.88
3551.315	-73.88
3554.157	-75.88
3556.998	-82.88
3559.837	-73.88
3562.673	-76.88
3565.507	-73.88
3568.339	-77.88
3571.169	-79.88
3573.996	-78.88
3576.822	-77.88
3579.645	-84.88
3582.466	-77.88
3585.285	-81.88
3588.101	-80.88
3590.916	-84.88
3593.728	-76.88
3596.538	-86.88
3599.346	-81.88
3602.152	-84.88
3604.956	-83.88
3607.757	-83.88
3610.556	-82.88
3613.354	-87.88
3616.149	-90.88
3618.942	-83.88
3621.732	-88.88
3624.521	-87.88
3627.307	-84.88
3630.092	-82.88
3632.874	-86.88
3635.654	-84.88
3638.432	-83.88
3641.208	-85.88
3643.982	-85.88
3646.753	-89.88
3649.523	-91.88
3652.29	-84.88
3655.055	-83.88
3657.818	-85.88
3660.579	-90.88
3663.338	-89.88
3666.095	-85.88
3668.849	-92.88
3671.602	-83.88
3674.352	-87.88
3677.101	-83.88
3679.847	-92.88
3682.591	-87.88
3685.333	-85.88
3688.073	-87.88
3690.811	-83.88
3693.547	-86.88
3696.281	-91.88
3699.013	-84.88
3701.742	-87.88
3704.47	-86.88
3707.195	-84.88
3709.919	-80.88
3712.64	-90.88
3715.359	-86.88
3718.076	-81.88
3720.792	-86.88
3723.505	-87.88
3726.216	-86.88
3728.925	-86.88
3731.632	-85.88
3734.336	-88.88
3737.039	-88.88
3739.74	-85.88
3742.439	-83.88
3745.136	-84.88
3747.83	-90.88
3750.523	-86.88
3753.213	-104.88
3755.902	-93.88
3758.589	-88.88
3761.273	-92.88
3763.956	-92.88
3766.636	-88.88
3769.315	-87.88
3771.991	-88.88
3774.665	-82.88
3777.338	-87.88
3780.008	-94.88
3782.677	-92.88
3785.343	-92.88
3788.007	-93.88
3790.67	-87.88
3793.33	-96.88
3795.989	-85.88
3798.645	-94.88
3801.299	-86.88
3803.952	-90.88
3806.602	-91.88
3809.251	-90.88
3811.897	-86.88
3814.542	-94.88
3817.184	-84.88
3819.825	-89.88
3822.463	-91.88
3825.1	-92.88
3827.735	-92.88
3830.367	-97.88
3832.998	-91.88
3835.627	-84.88
3838.253	-89.88
3840.878	-85.88
3843.501	-82.88
3846.122	-91.88
3848.741	-89.88
3851.358	-84.88
3853.973	-79.88
3856.586	-88.88
3859.197	-78.88
3861.806	-86.88
3864.414	-79.88
3867.019	-80.88
3869.622	-74.88
3872.224	-64.88
3874.823	-46.88
3877.421	-24.88
3880.016	23.12
3882.61	62.12
3885.202	71.12
3887.792	37.12
3890.38	-14.88
3892.966	-51.88
3895.55	-62.88
3898.132	-81.88
3900.713	-82.88
3903.291	-85.88
3905.868	-84.88
3908.442	-90.88
3911.015	-90.88
3913.586	-90.88
3916.155	-85.88
3918.722	-88.88
3921.287	-88.88
3923.85	-94.88
3926.411	-90.88
3928.971	-91.88
3931.528	-86.88
3934.084	-91.88
3936.638	-91.88
3939.19	-93.88
3941.74	-88.88
3944.288	-92.88
3946.834	-87.88
3949.378	-93.88
3951.921	-84.88
3954.462	-90.88
3957	-87.88
3959.537	-85.88
3962.072	-85.88
3964.606	-94.88
3967.137	-87.88
3969.667	-88.88
3972.194	-89.88
3974.72	-95.88
3977.244	-87.88
3979.766	-93.88
3982.286	-89.88
3984.805	-89.88
3987.321	-85.88
3989.836	-92.88
3992.349	-83.88
3994.86	-90.88
3997.369	-89.88
3999.877	-86.88
4002.382	-86.88
4004.886	-85.88
4007.388	-83.88
4009.888	-87.88
4012.386	-88.88
4014.883	-92.88
4017.377	-85.88
4019.87	-87.88
4022.361	-87.88
4024.85	-82.88
4027.338	-83.88
4029.823	-86.88
4032.307	-84.88
4034.789	-88.88
4037.269	-87.88
4039.747	-85.88
4042.224	-90.88
4044.699	-80.88
4047.172	-83.88
4049.643	-82.88
4052.112	-85.88
4054.58	-91.88
4057.046	-84.88
4059.51	-88.88
4061.972	-82.88
4064.432	-82.88
4066.891	-90.88
4069.348	-79.88
4071.803	-87.88
4074.256	-82.88
4076.708	-84.88
4079.158	-83.88
4081.606	-86.88
4084.052	-88.88
4086.497	-86.88
4088.939	-87.88
4091.38	-85.88
4093.819	-88.88
4096.257	-88.88
4098.693	-92.88
4101.127	-91.88
4103.559	-92.88
4105.989	48.12
4108.418	38.12
4110.845	47.12
4113.27	29.12
4115.694	35.12
4118.115	35.12
4120.535	-86.88
4122.954	-89.88
4125.37	-88.88
4127.785	-87.88
4130.198	-89.88
4132.609	-83.88
4135.019	-89.88
4137.427	-88.88
4139.833	-86.88
4142.237	-94.88