File: Data/Raman/2017-08-29 - Alluminum 2/Aug 29 2017 - Aluminum 2/EC 11 3_RamanShift_3.txt
Data from EC 11 3_RamanShift_3.txt Node

Date: Tue Aug 29 12:42:07 IDT 2017
User: aro
Spectrometer: QEPB0276
Trigger mode: 0
Integration Time (sec): 3.000000E1
Scans to average: 1
Electric dark correction enabled: true
Nonlinearity correction enabled: false
Boxcar width: 0
XAxis mode: Raman Shifts
Number of Pixels in Spectrum: 1044
>>>>>Begin Spectral Data<<<<<
160.701	21.5
166.742	43.5
172.777	111.5
178.805	311.5
184.826	818.5
190.841	1707.5
196.849	2723.5
202.85	3510.5
208.845	3851.5
214.833	3947.5
220.815	3995.5
226.789	4134.5
232.758	4265.5
238.719	4345.5
244.674	4443.5
250.623	4514.5
256.565	4589.5
262.5	4632.5
268.429	4686.5
274.351	4781.5
280.267	4830.5
286.176	4903.5
292.079	4946.5
297.975	5059.5
303.865	5023.5
309.748	5080.5
315.625	5144.5
321.495	5123.5
327.359	5153.5
333.217	5192.5
339.068	5185.5
344.912	5210.5
350.751	5264.5
356.583	5255.5
362.408	5292.5
368.227	5303.5
374.04	5413.5
379.847	5554.5
385.647	5659.5
391.44	5566.5
397.228	5477.5
403.009	5498.5
408.784	5712.5
414.553	6135.5
420.315	6658.5
426.071	6701.5
431.821	6142.5
437.565	5679.5
443.302	5530.5
449.033	5451.5
454.758	5397.5
460.477	5367.5
466.189	5289.5
471.896	5228.5
477.596	5219.5
483.29	5188.5
488.978	5173.5
494.66	5115.5
500.335	5025.5
506.005	4857.5
511.668	4668.5
517.325	4498.5
522.977	4332.5
528.622	4254.5
534.261	4191.5
539.894	4108.5
545.521	4036.5
551.141	4029.5
556.756	4022.5
562.365	4006.5
567.968	3953.5
573.565	3973.5
579.155	3954.5
584.74	3963.5
590.319	3942.5
595.892	3940.5
601.459	3934.5
607.02	3897.5
612.575	3866.5
618.124	3864.5
623.667	3796.5
629.204	3787.5
634.735	3804.5
640.261	3928.5
645.781	4105.5
651.294	4164.5
656.802	4031.5
662.304	3799.5
667.8	3703.5
673.29	3682.5
678.775	3640.5
684.254	3633.5
689.726	3603.5
695.193	3605.5
700.655	3572.5
706.11	3582.5
711.56	3532.5
717.004	3548.5
722.442	3553.5
727.874	3510.5
733.301	3535.5
738.722	3528.5
744.137	3564.5
749.547	3620.5
754.951	3643.5
760.349	3630.5
765.741	3594.5
771.128	3590.5
776.509	3594.5
781.885	3598.5
787.254	3647.5
792.618	3636.5
797.977	3643.5
803.33	3629.5
808.677	3582.5
814.019	3558.5
819.355	3547.5
824.686	3498.5
830.011	3533.5
835.33	3482.5
840.644	3473.5
845.952	3470.5
851.255	3456.5
856.552	3437.5
861.844	3418.5
867.13	3404.5
872.41	3387.5
877.686	3363.5
882.955	3333.5
888.219	3299.5
893.478	3286.5
898.731	3238.5
903.979	3220.5
909.221	3203.5
914.458	3201.5
919.69	3202.5
924.916	3226.5
930.136	3220.5
935.351	3208.5
940.561	3220.5
945.766	3223.5
950.965	3213.5
956.158	3181.5
961.347	3180.5
966.529	3133.5
971.707	3098.5
976.879	3066.5
982.046	3026.5
987.208	3029.5
992.364	3019.5
997.515	3032.5
1002.66	3061.5
1007.801	3084.5
1012.936	3133.5
1018.066	3116.5
1023.19	3158.5
1028.309	3146.5
1033.423	3139.5
1038.532	3122.5
1043.636	3119.5
1048.734	3085.5
1053.827	3058.5
1058.915	3017.5
1063.998	2996.5
1069.075	2991.5
1074.147	2980.5
1079.214	3011.5
1084.276	3032.5
1089.333	3048.5
1094.385	3041.5
1099.431	3013.5
1104.472	3018.5
1109.509	2999.5
1114.54	2952.5
1119.565	2904.5
1124.586	2893.5
1129.602	2843.5
1134.613	2808.5
1139.618	2785.5
1144.619	2796.5
1149.614	2813.5
1154.604	2833.5
1159.589	2828.5
1164.57	2838.5
1169.545	2860.5
1174.515	2831.5
1179.48	2826.5
1184.44	2806.5
1189.395	2781.5
1194.345	2766.5
1199.29	2753.5
1204.23	2731.5
1209.165	2781.5
1214.095	2770.5
1219.021	2813.5
1223.941	2789.5
1228.856	2811.5
1233.766	2813.5
1238.672	2789.5
1243.572	2790.5
1248.467	2779.5
1253.358	2730.5
1258.244	2670.5
1263.124	2623.5
1268	2571.5
1272.871	2546.5
1277.737	2526.5
1282.599	2527.5
1287.455	2540.5
1292.306	2514.5
1297.153	2533.5
1301.995	2542.5
1306.832	2554.5
1311.664	2535.5
1316.491	2528.5
1321.314	2477.5
1326.132	2460.5
1330.945	2432.5
1335.753	2351.5
1340.556	2302.5
1345.354	2262.5
1350.148	2239.5
1354.937	2228.5
1359.722	2213.5
1364.501	2218.5
1369.276	2247.5
1374.046	2281.5
1378.811	2305.5
1383.572	2319.5
1388.327	2326.5
1393.079	2323.5
1397.825	2307.5
1402.567	2256.5
1407.304	2198.5
1412.036	2187.5
1416.764	2161.5
1421.487	2142.5
1426.205	2130.5
1430.919	2135.5
1435.628	2138.5
1440.333	2147.5
1445.032	2143.5
1449.727	2149.5
1454.418	2152.5
1459.104	2100.5
1463.785	2072.5
1468.462	2045.5
1473.134	2012.5
1477.802	1989.5
1482.465	1970.5
1487.123	1966.5
1491.777	1956.5
1496.426	1964.5
1501.071	1986.5
1505.711	2018.5
1510.347	2051.5
1514.978	2079.5
1519.604	2104.5
1524.226	2113.5
1528.844	2116.5
1533.457	2080.5
1538.065	2069.5
1542.669	2041.5
1547.269	2023.5
1551.864	2015.5
1556.454	2008.5
1561.041	2000.5
1565.622	1972.5
1570.199	1952.5
1574.772	1941.5
1579.34	1936.5
1583.904	1927.5
1588.464	1907.5
1593.019	1893.5
1597.569	1882.5
1602.115	1816.5
1606.657	1798.5
1611.195	1786.5
1615.728	1750.5
1620.256	1728.5
1624.78	1717.5
1629.3	1716.5
1633.816	1694.5
1638.327	1707.5
1642.834	1719.5
1647.336	1720.5
1651.834	1730.5
1656.328	1719.5
1660.817	1722.5
1665.302	1713.5
1669.783	1684.5
1674.259	1690.5
1678.732	1630.5
1683.199	1613.5
1687.663	1588.5
1692.122	1572.5
1696.577	1575.5
1701.028	1586.5
1705.474	1593.5
1709.917	1635.5
1714.355	1666.5
1718.788	1646.5
1723.218	1654.5
1727.643	1605.5
1732.064	1607.5
1736.481	1582.5
1740.893	1536.5
1745.301	1515.5
1749.705	1477.5
1754.105	1441.5
1758.501	1381.5
1762.893	1374.5
1767.28	1345.5
1771.663	1318.5
1776.042	1287.5
1780.417	1289.5
1784.787	1297.5
1789.154	1323.5
1793.516	1326.5
1797.874	1363.5
1802.228	1387.5
1806.578	1408.5
1810.924	1398.5
1815.266	1373.5
1819.603	1366.5
1823.937	1340.5
1828.266	1298.5
1832.591	1298.5
1836.913	1288.5
1841.23	1271.5
1845.543	1257.5
1849.852	1263.5
1854.156	1256.5
1858.457	1240.5
1862.754	1240.5
1867.047	1258.5
1871.335	1241.5
1875.62	1257.5
1879.9	1251.5
1884.177	1226.5
1888.449	1217.5
1892.718	1210.5
1896.982	1199.5
1901.243	1193.5
1905.499	1182.5
1909.752	1196.5
1914	1191.5
1918.245	1211.5
1922.485	1222.5
1926.722	1223.5
1930.954	1233.5
1935.183	1238.5
1939.408	1267.5
1943.628	1259.5
1947.845	1255.5
1952.058	1253.5
1956.267	1241.5
1960.472	1219.5
1964.673	1198.5
1968.87	1177.5
1973.063	1147.5
1977.252	1123.5
1981.438	1114.5
1985.619	1093.5
1989.797	1064.5
1993.971	1057.5
1998.14	1059.5
2002.306	1053.5
2006.469	1045.5
2010.627	1051.5
2014.781	1013.5
2018.932	1019.5
2023.078	1001.5
2027.221	980.5
2031.36	971.5
2035.495	951.5
2039.627	938.5
2043.754	942.5
2047.878	930.5
2051.998	911.5
2056.114	908.5
2060.226	908.5
2064.334	915.5
2068.439	922.5
2072.54	928.5
2076.637	937.5
2080.73	943.5
2084.82	954.5
2088.906	961.5
2092.988	958.5
2097.066	964.5
2101.14	940.5
2105.211	938.5
2109.278	925.5
2113.342	923.5
2117.401	909.5
2121.457	924.5
2125.509	905.5
2129.558	893.5
2133.602	886.5
2137.643	881.5
2141.681	873.5
2145.714	870.5
2149.744	863.5
2153.77	854.5
2157.793	846.5
2161.812	838.5
2165.827	833.5
2169.838	819.5
2173.846	813.5
2177.851	790.5
2181.851	784.5
2185.848	785.5
2189.841	765.5
2193.831	755.5
2197.817	751.5
2201.799	747.5
2205.778	762.5
2209.753	747.5
2213.725	745.5
2217.693	748.5
2221.657	750.5
2225.618	752.5
2229.575	750.5
2233.529	736.5
2237.479	749.5
2241.425	740.5
2245.368	727.5
2249.307	714.5
2253.243	708.5
2257.175	702.5
2261.104	707.5
2265.029	686.5
2268.95	679.5
2272.868	675.5
2276.783	675.5
2280.694	654.5
2284.601	642.5
2288.505	654.5
2292.405	649.5
2296.302	636.5
2300.195	624.5
2304.085	630.5
2307.971	615.5
2311.854	618.5
2315.734	615.5
2319.609	600.5
2323.482	601.5
2327.351	611.5
2331.216	626.5
2335.078	641.5
2338.937	619.5
2342.792	567.5
2346.643	570.5
2350.492	578.5
2354.336	581.5
2358.178	579.5
2362.015	587.5
2365.85	583.5
2369.681	574.5
2373.508	587.5
2377.333	577.5
2381.153	588.5
2384.971	578.5
2388.785	564.5
2392.595	579.5
2396.402	577.5
2400.206	558.5
2404.007	557.5
2407.804	554.5
2411.597	556.5
2415.388	559.5
2419.174	558.5
2422.958	558.5
2426.738	545.5
2430.515	544.5
2434.289	537.5
2438.059	525.5
2441.825	516.5
2445.589	524.5
2449.349	510.5
2453.106	511.5
2456.859	499.5
2460.61	505.5
2464.356	495.5
2468.1	493.5
2471.84	493.5
2475.577	481.5
2479.311	485.5
2483.041	471.5
2486.768	483.5
2490.492	473.5
2494.213	473.5
2497.93	466.5
2501.644	461.5
2505.355	463.5
2509.062	460.5
2512.766	473.5
2516.467	463.5
2520.165	464.5
2523.859	464.5
2527.551	459.5
2531.239	451.5
2534.923	445.5
2538.605	446.5
2542.283	449.5
2545.958	449.5
2549.63	448.5
2553.299	455.5
2556.964	454.5
2560.626	439.5
2564.285	445.5
2567.941	438.5
2571.594	432.5
2575.243	432.5
2578.89	441.5
2582.533	424.5
2586.173	433.5
2589.809	426.5
2593.443	415.5
2597.073	413.5
2600.701	412.5
2604.325	402.5
2607.946	403.5
2611.564	407.5
2615.178	405.5
2618.79	382.5
2622.398	392.5
2626.004	378.5
2629.606	379.5
2633.205	370.5
2636.801	366.5
2640.394	359.5
2643.983	349.5
2647.57	342.5
2651.153	342.5
2654.734	337.5
2658.311	324.5
2661.885	322.5
2665.456	323.5
2669.025	317.5
2672.589	311.5
2676.151	312.5
2679.71	301.5
2683.266	292.5
2686.819	292.5
2690.368	280.5
2693.915	285.5
2697.458	272.5
2700.999	266.5
2704.536	254.5
2708.071	253.5
2711.602	246.5
2715.13	243.5
2718.656	228.5
2722.178	229.5
2725.697	220.5
2729.214	224.5
2732.727	229.5
2736.237	223.5
2739.744	218.5
2743.249	223.5
2746.75	220.5
2750.248	218.5
2753.743	228.5
2757.236	224.5
2760.725	225.5
2764.211	221.5
2767.695	231.5
2771.175	226.5
2774.652	222.5
2778.127	230.5
2781.598	223.5
2785.067	212.5
2788.532	220.5
2791.995	205.5
2795.455	206.5
2798.911	209.5
2802.365	192.5
2805.816	210.5
2809.264	192.5
2812.709	196.5
2816.151	197.5
2819.59	206.5
2823.026	193.5
2826.46	192.5
2829.89	185.5
2833.318	191.5
2836.742	196.5
2840.164	187.5
2843.583	186.5
2846.999	185.5
2850.412	184.5
2853.822	180.5
2857.229	177.5
2860.634	189.5
2864.035	176.5
2867.434	181.5
2870.83	179.5
2874.223	177.5
2877.613	161.5
2881	159.5
2884.385	157.5
2887.766	156.5
2891.145	151.5
2894.521	146.5
2897.894	137.5
2901.264	128.5
2904.631	129.5
2907.996	133.5
2911.358	125.5
2914.717	122.5
2918.073	116.5
2921.426	113.5
2924.777	115.5
2928.124	107.5
2931.469	116.5
2934.811	103.5
2938.15	100.5
2941.487	98.5
2944.821	99.5
2948.152	88.5
2951.48	94.5
2954.805	89.5
2958.128	85.5
2961.447	80.5
2964.765	75.5
2968.079	72.5
2971.39	73.5
2974.699	72.5
2978.005	79.5
2981.308	67.5
2984.609	70.5
2987.907	71.5
2991.202	69.5
2994.494	81.5
2997.784	66.5
3001.07	69.5
3004.355	69.5
3007.636	74.5
3010.915	61.5
3014.191	64.5
3017.464	59.5
3020.734	67.5
3024.002	49.5
3027.267	47.5
3030.53	43.5
3033.789	53.5
3037.046	42.5
3040.301	37.5
3043.552	31.5
3046.801	38.5
3050.048	36.5
3053.291	24.5
3056.532	31.5
3059.771	36.5
3063.006	26.5
3066.239	27.5
3069.469	37.5
3072.697	21.5
3075.922	17.5
3079.144	22.5
3082.364	23.5
3085.581	18.5
3088.795	15.5
3092.007	10.5
3095.216	18.5
3098.423	15.5
3101.627	18.5
3104.828	18.5
3108.026	16.5
3111.222	9.5
3114.416	13.5
3117.607	14.5
3120.795	10.5
3123.98	9.5
3127.163	10.5
3130.344	5.5
3133.521	9.5
3136.696	8.5
3139.869	8.5
3143.039	2.5
3146.206	-3.5
3149.371	-2.5
3152.533	-9.5
3155.693	-10.5
3158.85	-6.5
3162.005	-8.5
3165.157	-9.5
3168.306	-8.5
3171.453	-9.5
3174.597	-16.5
3177.739	-19.5
3180.878	-21.5
3184.014	-22.5
3187.149	-21.5
3190.28	-26.5
3193.409	-22.5
3196.536	-38.5
3199.659	-32.5
3202.781	-33.5
3205.9	-32.5
3209.016	-47.5
3212.13	-38.5
3215.241	-38.5
3218.35	-32.5
3221.456	-39.5
3224.56	-42.5
3227.661	-47.5
3230.76	-38.5
3233.856	-52.5
3236.95	-47.5
3240.041	-45.5
3243.13	-50.5
3246.216	-47.5
3249.3	-47.5
3252.382	-51.5
3255.46	-47.5
3258.537	-25.5
3261.611	-57.5
3264.682	-52.5
3267.751	-44.5
3270.818	-52.5
3273.882	-62.5
3276.943	-53.5
3280.002	-51.5
3283.059	-54.5
3286.113	-57.5
3289.165	-53.5
3292.214	-58.5
3295.261	-59.5
3298.306	-61.5
3301.348	-61.5
3304.387	-66.5
3307.425	-61.5
3310.459	-67.5
3313.492	-64.5
3316.521	-72.5
3319.549	-73.5
3322.574	-70.5
3325.597	-70.5
3328.617	-72.5
3331.635	-72.5
3334.65	-69.5
3337.663	-74.5
3340.674	-73.5
3343.682	-73.5
3346.688	-70.5
3349.691	-76.5
3352.692	-75.5
3355.691	-73.5
3358.687	-73.5
3361.681	-72.5
3364.673	-75.5
3367.662	-75.5
3370.649	-80.5
3373.633	-76.5
3376.615	-77.5
3379.595	-78.5
3382.572	-70.5
3385.547	-74.5
3388.52	-73.5
3391.49	-81.5
3394.458	-80.5
3397.424	-76.5
3400.387	-74.5
3403.348	-79.5
3406.307	-76.5
3409.263	-82.5
3412.217	-75.5
3415.168	-81.5
3418.118	-81.5
3421.065	-86.5
3424.009	-73.5
3426.951	-86.5
3429.891	-81.5
3432.829	-85.5
3435.764	-85.5
3438.697	-86.5
3441.628	-78.5
3444.557	-82.5
3447.483	-91.5
3450.407	-91.5
3453.328	-81.5
3456.247	-83.5
3459.164	-92.5
3462.079	-90.5
3464.991	-91.5
3467.902	-93.5
3470.809	-94.5
3473.715	-95.5
3476.618	-87.5
3479.519	-85.5
3482.418	-90.5
3485.315	-97.5
3488.209	-100.5
3491.101	-93.5
3493.99	-91.5
3496.878	-97.5
3499.763	-100.5
3502.646	-96.5
3505.527	-104.5
3508.405	-98.5
3511.281	-102.5
3514.155	-91.5
3517.027	-95.5
3519.897	-100.5
3522.764	-97.5
3525.629	-104.5
3528.492	-100.5
3531.352	-100.5
3534.211	-101.5
3537.067	-102.5
3539.921	-95.5
3542.773	-100.5
3545.622	-98.5
3548.469	-105.5
3551.315	-96.5
3554.157	-99.5
3556.998	-105.5
3559.837	-100.5
3562.673	-100.5
3565.507	-103.5
3568.339	-103.5
3571.169	-107.5
3573.996	-108.5
3576.822	-103.5
3579.645	-108.5
3582.466	-105.5
3585.285	-107.5
3588.101	-108.5
3590.916	-112.5
3593.728	-100.5
3596.538	-113.5
3599.346	-109.5
3602.152	-109.5
3604.956	-104.5
3607.757	-110.5
3610.556	-107.5
3613.354	-103.5
3616.149	-113.5
3618.942	-113.5
3621.732	-109.5
3624.521	-113.5
3627.307	-114.5
3630.092	-110.5
3632.874	-108.5
3635.654	-107.5
3638.432	-107.5
3641.208	-113.5
3643.982	-111.5
3646.753	-110.5
3649.523	-113.5
3652.29	-114.5
3655.055	-109.5
3657.818	-109.5
3660.579	-105.5
3663.338	-110.5
3666.095	-116.5
3668.849	-106.5
3671.602	-108.5
3674.352	-110.5
3677.101	-110.5
3679.847	-114.5
3682.591	-112.5
3685.333	-110.5
3688.073	-112.5
3690.811	-110.5
3693.547	-108.5
3696.281	-112.5
3699.013	-110.5
3701.742	-108.5
3704.47	-112.5
3707.195	-109.5
3709.919	-109.5
3712.64	-112.5
3715.359	-107.5
3718.076	-107.5
3720.792	-110.5
3723.505	-110.5
3726.216	-115.5
3728.925	-113.5
3731.632	-111.5
3734.336	-113.5
3737.039	-112.5
3739.74	-111.5
3742.439	-111.5
3745.136	-112.5
3747.83	-115.5
3750.523	-110.5
3753.213	-136.5
3755.902	-119.5
3758.589	-115.5
3761.273	-123.5
3763.956	-110.5
3766.636	-115.5
3769.315	-117.5
3771.991	-112.5
3774.665	-108.5
3777.338	-110.5
3780.008	-121.5
3782.677	-116.5
3785.343	-123.5
3788.007	-121.5
3790.67	-116.5
3793.33	-116.5
3795.989	-112.5
3798.645	-119.5
3801.299	-112.5
3803.952	-123.5
3806.602	-118.5
3809.251	-117.5
3811.897	-120.5
3814.542	-120.5
3817.184	-109.5
3819.825	-117.5
3822.463	-120.5
3825.1	-119.5
3827.735	-114.5
3830.367	-119.5
3832.998	-110.5
3835.627	-115.5
3838.253	-119.5
3840.878	-113.5
3843.501	-115.5
3846.122	-117.5
3848.741	-114.5
3851.358	-114.5
3853.973	-113.5
3856.586	-120.5
3859.197	-113.5
3861.806	-116.5
3864.414	-114.5
3867.019	-109.5
3869.622	-107.5
3872.224	-104.5
3874.823	-88.5
3877.421	-74.5
3880.016	-43.5
3882.61	-24.5
3885.202	-6.5
3887.792	-28.5
3890.38	-65.5
3892.966	-87.5
3895.55	-101.5
3898.132	-111.5
3900.713	-113.5
3903.291	-119.5
3905.868	-116.5
3908.442	-119.5
3911.015	-117.5
3913.586	-119.5
3916.155	-115.5
3918.722	-114.5
3921.287	-116.5
3923.85	-120.5
3926.411	-116.5
3928.971	-121.5
3931.528	-113.5
3934.084	-122.5
3936.638	-118.5
3939.19	-120.5
3941.74	-117.5
3944.288	-119.5
3946.834	-112.5
3949.378	-117.5
3951.921	-115.5
3954.462	-124.5
3957	-115.5
3959.537	-111.5
3962.072	-109.5
3964.606	-118.5
3967.137	-118.5
3969.667	-113.5
3972.194	-120.5
3974.72	-116.5
3977.244	-113.5
3979.766	-119.5
3982.286	-114.5
3984.805	-118.5
3987.321	-115.5
3989.836	-112.5
3992.349	-112.5
3994.86	-111.5
3997.369	-116.5
3999.877	-111.5
4002.382	-109.5
4004.886	-114.5
4007.388	-114.5
4009.888	-113.5
4012.386	-111.5
4014.883	-115.5
4017.377	-108.5
4019.87	-106.5
4022.361	-113.5
4024.85	-112.5
4027.338	-109.5
4029.823	-114.5
4032.307	-112.5
4034.789	-111.5
4037.269	-114.5
4039.747	-115.5
4042.224	-114.5
4044.699	-110.5
4047.172	-114.5
4049.643	-115.5
4052.112	-110.5
4054.58	-117.5
4057.046	-109.5
4059.51	-113.5
4061.972	-115.5
4064.432	-109.5
4066.891	-116.5
4069.348	-111.5
4071.803	-115.5
4074.256	-112.5
4076.708	-115.5
4079.158	-118.5
4081.606	-116.5
4084.052	-118.5
4086.497	-115.5
4088.939	-122.5
4091.38	-115.5
4093.819	-121.5
4096.257	-119.5
4098.693	-122.5
4101.127	-122.5
4103.559	-121.5
4105.989	13.5
4108.418	3.5
4110.845	2.5
4113.27	-0.5
4115.694	2.5
4118.115	13.5
4120.535	-119.5
4122.954	-119.5
4125.37	-123.5
4127.785	-118.5
4130.198	-113.5
4132.609	-117.5
4135.019	-120.5
4137.427	-121.5
4139.833	-119.5
4142.237	-126.5