File: Data/Raman/2017-08-29 - Alluminum 2/Aug 29 2017 - Aluminum 2/EC 11 4_RamanShift_2.txt
Data from EC 11 4_RamanShift_2.txt Node

Date: Tue Aug 29 12:44:37 IDT 2017
User: aro
Spectrometer: QEPB0276
Trigger mode: 0
Integration Time (sec): 3.000000E1
Scans to average: 1
Electric dark correction enabled: true
Nonlinearity correction enabled: false
Boxcar width: 0
XAxis mode: Raman Shifts
Number of Pixels in Spectrum: 1044
>>>>>Begin Spectral Data<<<<<
160.701	17.5
166.742	44.5
172.777	124.5
178.805	356.5
184.826	940.5
190.841	1930.5
196.849	3097.5
202.85	3990.5
208.845	4351.5
214.833	4475.5
220.815	4545.5
226.789	4671.5
232.758	4816.5
238.719	4950.5
244.674	5054.5
250.623	5143.5
256.565	5199.5
262.5	5264.5
268.429	5333.5
274.351	5391.5
280.267	5459.5
286.176	5549.5
292.079	5612.5
297.975	5640.5
303.865	5732.5
309.748	5739.5
315.625	5777.5
321.495	5817.5
327.359	5836.5
333.217	5856.5
339.068	5891.5
344.912	5883.5
350.751	5925.5
356.583	5940.5
362.408	5932.5
368.227	5976.5
374.04	6143.5
379.847	6289.5
385.647	6377.5
391.44	6276.5
397.228	6146.5
403.009	6200.5
408.784	6418.5
414.553	6888.5
420.315	7443.5
426.071	7503.5
431.821	6897.5
437.565	6368.5
443.302	6244.5
449.033	6126.5
454.758	6094.5
460.477	6062.5
466.189	5982.5
471.896	5922.5
477.596	5905.5
483.29	5870.5
488.978	5867.5
494.66	5795.5
500.335	5710.5
506.005	5524.5
511.668	5290.5
517.325	5111.5
522.977	4954.5
528.622	4835.5
534.261	4750.5
539.894	4702.5
545.521	4647.5
551.141	4627.5
556.756	4579.5
562.365	4557.5
567.968	4573.5
573.565	4532.5
579.155	4571.5
584.74	4521.5
590.319	4532.5
595.892	4456.5
601.459	4501.5
607.02	4464.5
612.575	4428.5
618.124	4375.5
623.667	4354.5
629.204	4324.5
634.735	4366.5
640.261	4496.5
645.781	4629.5
651.294	4696.5
656.802	4575.5
662.304	4365.5
667.8	4248.5
673.29	4189.5
678.775	4164.5
684.254	4165.5
689.726	4138.5
695.193	4118.5
700.655	4048.5
706.11	4040.5
711.56	4044.5
717.004	4027.5
722.442	4008.5
727.874	4017.5
733.301	4003.5
738.722	4032.5
744.137	4028.5
749.547	4120.5
754.951	4144.5
760.349	4114.5
765.741	4097.5
771.128	4050.5
776.509	4062.5
781.885	4081.5
787.254	4123.5
792.618	4130.5
797.977	4145.5
803.33	4104.5
808.677	4075.5
814.019	4054.5
819.355	4031.5
824.686	3972.5
830.011	3962.5
835.33	3974.5
840.644	3945.5
845.952	3919.5
851.255	3913.5
856.552	3866.5
861.844	3865.5
867.13	3849.5
872.41	3821.5
877.686	3782.5
882.955	3747.5
888.219	3719.5
893.478	3707.5
898.731	3674.5
903.979	3644.5
909.221	3611.5
914.458	3633.5
919.69	3622.5
924.916	3629.5
930.136	3650.5
935.351	3637.5
940.561	3649.5
945.766	3640.5
950.965	3612.5
956.158	3621.5
961.347	3544.5
966.529	3546.5
971.707	3509.5
976.879	3433.5
982.046	3409.5
987.208	3432.5
992.364	3432.5
997.515	3450.5
1002.66	3454.5
1007.801	3495.5
1012.936	3512.5
1018.066	3540.5
1023.19	3557.5
1028.309	3553.5
1033.423	3573.5
1038.532	3508.5
1043.636	3474.5
1048.734	3460.5
1053.827	3440.5
1058.915	3393.5
1063.998	3364.5
1069.075	3371.5
1074.147	3388.5
1079.214	3401.5
1084.276	3391.5
1089.333	3393.5
1094.385	3421.5
1099.431	3412.5
1104.472	3401.5
1109.509	3365.5
1114.54	3325.5
1119.565	3271.5
1124.586	3223.5
1129.602	3184.5
1134.613	3176.5
1139.618	3129.5
1144.619	3157.5
1149.614	3169.5
1154.604	3168.5
1159.589	3188.5
1164.57	3202.5
1169.545	3184.5
1174.515	3179.5
1179.48	3180.5
1184.44	3129.5
1189.395	3127.5
1194.345	3116.5
1199.29	3083.5
1204.23	3080.5
1209.165	3087.5
1214.095	3085.5
1219.021	3134.5
1223.941	3145.5
1228.856	3156.5
1233.766	3146.5
1238.672	3127.5
1243.572	3122.5
1248.467	3086.5
1253.358	3020.5
1258.244	2962.5
1263.124	2939.5
1268	2901.5
1272.871	2860.5
1277.737	2831.5
1282.599	2799.5
1287.455	2814.5
1292.306	2812.5
1297.153	2827.5
1301.995	2823.5
1306.832	2819.5
1311.664	2826.5
1316.491	2813.5
1321.314	2770.5
1326.132	2733.5
1330.945	2701.5
1335.753	2616.5
1340.556	2568.5
1345.354	2508.5
1350.148	2487.5
1354.937	2484.5
1359.722	2488.5
1364.501	2494.5
1369.276	2525.5
1374.046	2565.5
1378.811	2587.5
1383.572	2611.5
1388.327	2633.5
1393.079	2604.5
1397.825	2545.5
1402.567	2498.5
1407.304	2451.5
1412.036	2428.5
1416.764	2374.5
1421.487	2392.5
1426.205	2358.5
1430.919	2365.5
1435.628	2390.5
1440.333	2394.5
1445.032	2390.5
1449.727	2378.5
1454.418	2366.5
1459.104	2347.5
1463.785	2298.5
1468.462	2271.5
1473.134	2274.5
1477.802	2202.5
1482.465	2214.5
1487.123	2199.5
1491.777	2192.5
1496.426	2229.5
1501.071	2247.5
1505.711	2307.5
1510.347	2311.5
1514.978	2343.5
1519.604	2357.5
1524.226	2381.5
1528.844	2380.5
1533.457	2362.5
1538.065	2314.5
1542.669	2292.5
1547.269	2279.5
1551.864	2265.5
1556.454	2247.5
1561.041	2216.5
1565.622	2198.5
1570.199	2174.5
1574.772	2165.5
1579.34	2137.5
1583.904	2149.5
1588.464	2107.5
1593.019	2087.5
1597.569	2074.5
1602.115	2015.5
1606.657	2007.5
1611.195	1962.5
1615.728	1941.5
1620.256	1915.5
1624.78	1928.5
1629.3	1905.5
1633.816	1887.5
1638.327	1894.5
1642.834	1894.5
1647.336	1922.5
1651.834	1899.5
1656.328	1906.5
1660.817	1927.5
1665.302	1932.5
1669.783	1902.5
1674.259	1886.5
1678.732	1863.5
1683.199	1816.5
1687.663	1806.5
1692.122	1777.5
1696.577	1786.5
1701.028	1806.5
1705.474	1812.5
1709.917	1869.5
1714.355	1869.5
1718.788	1858.5
1723.218	1855.5
1727.643	1832.5
1732.064	1823.5
1736.481	1777.5
1740.893	1743.5
1745.301	1698.5
1749.705	1660.5
1754.105	1612.5
1758.501	1574.5
1762.893	1521.5
1767.28	1524.5
1771.663	1470.5
1776.042	1477.5
1780.417	1458.5
1784.787	1466.5
1789.154	1494.5
1793.516	1520.5
1797.874	1537.5
1802.228	1579.5
1806.578	1576.5
1810.924	1582.5
1815.266	1590.5
1819.603	1529.5
1823.937	1504.5
1828.266	1487.5
1832.591	1446.5
1836.913	1417.5
1841.23	1426.5
1845.543	1408.5
1849.852	1412.5
1854.156	1392.5
1858.457	1393.5
1862.754	1407.5
1867.047	1391.5
1871.335	1408.5
1875.62	1409.5
1879.9	1397.5
1884.177	1387.5
1888.449	1381.5
1892.718	1374.5
1896.982	1360.5
1901.243	1333.5
1905.499	1355.5
1909.752	1354.5
1914	1349.5
1918.245	1383.5
1922.485	1382.5
1926.722	1415.5
1930.954	1425.5
1935.183	1417.5
1939.408	1435.5
1943.628	1446.5
1947.845	1440.5
1952.058	1448.5
1956.267	1401.5
1960.472	1387.5
1964.673	1349.5
1968.87	1327.5
1973.063	1298.5
1977.252	1246.5
1981.438	1239.5
1985.619	1220.5
1989.797	1193.5
1993.971	1192.5
1998.14	1193.5
2002.306	1163.5
2006.469	1180.5
2010.627	1178.5
2014.781	1144.5
2018.932	1132.5
2023.078	1115.5
2027.221	1106.5
2031.36	1070.5
2035.495	1080.5
2039.627	1050.5
2043.754	1043.5
2047.878	1027.5
2051.998	1022.5
2056.114	1021.5
2060.226	1022.5
2064.334	1037.5
2068.439	1032.5
2072.54	1056.5
2076.637	1059.5
2080.73	1060.5
2084.82	1071.5
2088.906	1071.5
2092.988	1087.5
2097.066	1089.5
2101.14	1053.5
2105.211	1057.5
2109.278	1051.5
2113.342	1041.5
2117.401	1032.5
2121.457	1025.5
2125.509	1008.5
2129.558	1011.5
2133.602	976.5
2137.643	991.5
2141.681	976.5
2145.714	964.5
2149.744	943.5
2153.77	938.5
2157.793	934.5
2161.812	927.5
2165.827	917.5
2169.838	906.5
2173.846	888.5
2177.851	892.5
2181.851	851.5
2185.848	849.5
2189.841	833.5
2193.831	840.5
2197.817	815.5
2201.799	828.5
2205.778	821.5
2209.753	826.5
2213.725	819.5
2217.693	813.5
2221.657	803.5
2225.618	819.5
2229.575	825.5
2233.529	823.5
2237.479	811.5
2241.425	793.5
2245.368	793.5
2249.307	781.5
2253.243	776.5
2257.175	759.5
2261.104	747.5
2265.029	745.5
2268.95	730.5
2272.868	724.5
2276.783	715.5
2280.694	724.5
2284.601	715.5
2288.505	714.5
2292.405	703.5
2296.302	684.5
2300.195	679.5
2304.085	668.5
2307.971	679.5
2311.854	659.5
2315.734	652.5
2319.609	641.5
2323.482	642.5
2327.351	649.5
2331.216	673.5
2335.078	685.5
2338.937	652.5
2342.792	617.5
2346.643	607.5
2350.492	629.5
2354.336	609.5
2358.178	617.5
2362.015	612.5
2365.85	611.5
2369.681	623.5
2373.508	628.5
2377.333	622.5
2381.153	619.5
2384.971	614.5
2388.785	620.5
2392.595	598.5
2396.402	601.5
2400.206	597.5
2404.007	592.5
2407.804	586.5
2411.597	594.5
2415.388	586.5
2419.174	596.5
2422.958	576.5
2426.738	586.5
2430.515	570.5
2434.289	567.5
2438.059	546.5
2441.825	558.5
2445.589	546.5
2449.349	549.5
2453.106	530.5
2456.859	525.5
2460.61	522.5
2464.356	510.5
2468.1	506.5
2471.84	510.5
2475.577	506.5
2479.311	495.5
2483.041	508.5
2486.768	502.5
2490.492	484.5
2494.213	500.5
2497.93	498.5
2501.644	490.5
2505.355	490.5
2509.062	489.5
2512.766	490.5
2516.467	492.5
2520.165	482.5
2523.859	480.5
2527.551	479.5
2531.239	472.5
2534.923	473.5
2538.605	466.5
2542.283	470.5
2545.958	475.5
2549.63	480.5
2553.299	480.5
2556.964	473.5
2560.626	465.5
2564.285	463.5
2567.941	466.5
2571.594	459.5
2575.243	454.5
2578.89	456.5
2582.533	463.5
2586.173	457.5
2589.809	439.5
2593.443	444.5
2597.073	425.5
2600.701	420.5
2604.325	418.5
2607.946	415.5
2611.564	407.5
2615.178	414.5
2618.79	401.5
2622.398	400.5
2626.004	399.5
2629.606	394.5
2633.205	386.5
2636.801	381.5
2640.394	372.5
2643.983	362.5
2647.57	354.5
2651.153	344.5
2654.734	354.5
2658.311	345.5
2661.885	328.5
2665.456	321.5
2669.025	324.5
2672.589	313.5
2676.151	305.5
2679.71	300.5
2683.266	306.5
2686.819	299.5
2690.368	283.5
2693.915	274.5
2697.458	274.5
2700.999	265.5
2704.536	258.5
2708.071	252.5
2711.602	253.5
2715.13	235.5
2718.656	226.5
2722.178	231.5
2725.697	230.5
2729.214	223.5
2732.727	236.5
2736.237	224.5
2739.744	224.5
2743.249	227.5
2746.75	225.5
2750.248	218.5
2753.743	225.5
2757.236	237.5
2760.725	234.5
2764.211	224.5
2767.695	241.5
2771.175	238.5
2774.652	223.5
2778.127	226.5
2781.598	222.5
2785.067	211.5
2788.532	217.5
2791.995	210.5
2795.455	209.5
2798.911	219.5
2802.365	211.5
2805.816	213.5
2809.264	202.5
2812.709	196.5
2816.151	201.5
2819.59	205.5
2823.026	199.5
2826.46	194.5
2829.89	198.5
2833.318	199.5
2836.742	189.5
2840.164	192.5
2843.583	195.5
2846.999	185.5
2850.412	177.5
2853.822	187.5
2857.229	190.5
2860.634	181.5
2864.035	177.5
2867.434	181.5
2870.83	181.5
2874.223	168.5
2877.613	165.5
2881	156.5
2884.385	159.5
2887.766	148.5
2891.145	154.5
2894.521	143.5
2897.894	144.5
2901.264	137.5
2904.631	124.5
2907.996	118.5
2911.358	124.5
2914.717	125.5
2918.073	119.5
2921.426	115.5
2924.777	108.5
2928.124	104.5
2931.469	105.5
2934.811	111.5
2938.15	102.5
2941.487	101.5
2944.821	96.5
2948.152	72.5
2951.48	84.5
2954.805	82.5
2958.128	75.5
2961.447	76.5
2964.765	64.5
2968.079	65.5
2971.39	68.5
2974.699	63.5
2978.005	70.5
2981.308	75.5
2984.609	62.5
2987.907	77.5
2991.202	63.5
2994.494	68.5
2997.784	71.5
3001.07	64.5
3004.355	62.5
3007.636	62.5
3010.915	60.5
3014.191	60.5
3017.464	50.5
3020.734	57.5
3024.002	32.5
3027.267	38.5
3030.53	42.5
3033.789	38.5
3037.046	33.5
3040.301	36.5
3043.552	23.5
3046.801	26.5
3050.048	26.5
3053.291	24.5
3056.532	19.5
3059.771	22.5
3063.006	13.5
3066.239	19.5
3069.469	16.5
3072.697	12.5
3075.922	15.5
3079.144	13.5
3082.364	12.5
3085.581	14.5
3088.795	2.5
3092.007	-2.5
3095.216	6.5
3098.423	4.5
3101.627	5.5
3104.828	0.5
3108.026	-0.5
3111.222	2.5
3114.416	8.5
3117.607	-4.5
3120.795	-2.5
3123.98	-1.5
3127.163	-4.5
3130.344	2.5
3133.521	-8.5
3136.696	-3.5
3139.869	-7.5
3143.039	-9.5
3146.206	-14.5
3149.371	-11.5
3152.533	-20.5
3155.693	-17.5
3158.85	-19.5
3162.005	-23.5
3165.157	-22.5
3168.306	-22.5
3171.453	-30.5
3174.597	-27.5
3177.739	-29.5
3180.878	-35.5
3184.014	-42.5
3187.149	-40.5
3190.28	-37.5
3193.409	-42.5
3196.536	-51.5
3199.659	-38.5
3202.781	-53.5
3205.9	-51.5
3209.016	-50.5
3212.13	-58.5
3215.241	-56.5
3218.35	-50.5
3221.456	-50.5
3224.56	-50.5
3227.661	-61.5
3230.76	-60.5
3233.856	-69.5
3236.95	-59.5
3240.041	-58.5
3243.13	-65.5
3246.216	-65.5
3249.3	-63.5
3252.382	-59.5
3255.46	-62.5
3258.537	-33.5
3261.611	-60.5
3264.682	-56.5
3267.751	-62.5
3270.818	-64.5
3273.882	-69.5
3276.943	-58.5
3280.002	-62.5
3283.059	-68.5
3286.113	-65.5
3289.165	-66.5
3292.214	-71.5
3295.261	-67.5
3298.306	-65.5
3301.348	-76.5
3304.387	-79.5
3307.425	-76.5
3310.459	-81.5
3313.492	-74.5
3316.521	-81.5
3319.549	-76.5
3322.574	-83.5
3325.597	-85.5
3328.617	-77.5
3331.635	-79.5
3334.65	-79.5
3337.663	-91.5
3340.674	-77.5
3343.682	-81.5
3346.688	-83.5
3349.691	-88.5
3352.692	-84.5
3355.691	-90.5
3358.687	-86.5
3361.681	-82.5
3364.673	-91.5
3367.662	-87.5
3370.649	-91.5
3373.633	-82.5
3376.615	-89.5
3379.595	-94.5
3382.572	-91.5
3385.547	-89.5
3388.52	-87.5
3391.49	-92.5
3394.458	-93.5
3397.424	-88.5
3400.387	-89.5
3403.348	-91.5
3406.307	-91.5
3409.263	-96.5
3412.217	-95.5
3415.168	-95.5
3418.118	-99.5
3421.065	-98.5
3424.009	-94.5
3426.951	-104.5
3429.891	-94.5
3432.829	-97.5
3435.764	-107.5
3438.697	-98.5
3441.628	-99.5
3444.557	-96.5
3447.483	-100.5
3450.407	-109.5
3453.328	-102.5
3456.247	-106.5
3459.164	-108.5
3462.079	-109.5
3464.991	-108.5
3467.902	-106.5
3470.809	-108.5
3473.715	-106.5
3476.618	-108.5
3479.519	-104.5
3482.418	-107.5
3485.315	-117.5
3488.209	-113.5
3491.101	-109.5
3493.99	-113.5
3496.878	-110.5
3499.763	-116.5
3502.646	-108.5
3505.527	-121.5
3508.405	-113.5
3511.281	-114.5
3514.155	-113.5
3517.027	-116.5
3519.897	-110.5
3522.764	-110.5
3525.629	-116.5
3528.492	-112.5
3531.352	-111.5
3534.211	-114.5
3537.067	-119.5
3539.921	-113.5
3542.773	-119.5
3545.622	-111.5
3548.469	-120.5
3551.315	-113.5
3554.157	-114.5
3556.998	-122.5
3559.837	-113.5
3562.673	-114.5
3565.507	-116.5
3568.339	-117.5
3571.169	-118.5
3573.996	-115.5
3576.822	-113.5
3579.645	-121.5
3582.466	-113.5
3585.285	-120.5
3588.101	-118.5
3590.916	-121.5
3593.728	-114.5
3596.538	-122.5
3599.346	-120.5
3602.152	-120.5
3604.956	-117.5
3607.757	-118.5
3610.556	-121.5
3613.354	-114.5
3616.149	-127.5
3618.942	-124.5
3621.732	-119.5
3624.521	-122.5
3627.307	-121.5
3630.092	-124.5
3632.874	-123.5
3635.654	-121.5
3638.432	-123.5
3641.208	-126.5
3643.982	-126.5
3646.753	-126.5
3649.523	-121.5
3652.29	-129.5
3655.055	-125.5
3657.818	-123.5
3660.579	-127.5
3663.338	-123.5
3666.095	-121.5
3668.849	-127.5
3671.602	-125.5
3674.352	-127.5
3677.101	-121.5
3679.847	-131.5
3682.591	-121.5
3685.333	-123.5
3688.073	-126.5
3690.811	-124.5
3693.547	-124.5
3696.281	-123.5
3699.013	-127.5
3701.742	-127.5
3704.47	-131.5
3707.195	-123.5
3709.919	-126.5
3712.64	-133.5
3715.359	-131.5
3718.076	-122.5
3720.792	-130.5
3723.505	-124.5
3726.216	-131.5
3728.925	-127.5
3731.632	-130.5
3734.336	-128.5
3737.039	-133.5
3739.74	-128.5
3742.439	-121.5
3745.136	-135.5
3747.83	-132.5
3750.523	-128.5
3753.213	-153.5
3755.902	-127.5
3758.589	-128.5
3761.273	-136.5
3763.956	-133.5
3766.636	-129.5
3769.315	-130.5
3771.991	-132.5
3774.665	-127.5
3777.338	-132.5
3780.008	-139.5
3782.677	-131.5
3785.343	-136.5
3788.007	-138.5
3790.67	-130.5
3793.33	-132.5
3795.989	-128.5
3798.645	-138.5
3801.299	-129.5
3803.952	-131.5
3806.602	-133.5
3809.251	-133.5
3811.897	-133.5
3814.542	-131.5
3817.184	-128.5
3819.825	-134.5
3822.463	-132.5
3825.1	-139.5
3827.735	-134.5
3830.367	-136.5
3832.998	-128.5
3835.627	-128.5
3838.253	-131.5
3840.878	-132.5
3843.501	-126.5
3846.122	-133.5
3848.741	-134.5
3851.358	-128.5
3853.973	-128.5
3856.586	-135.5
3859.197	-128.5
3861.806	-131.5
3864.414	-129.5
3867.019	-125.5
3869.622	-127.5
3872.224	-113.5
3874.823	-96.5
3877.421	-86.5
3880.016	-60.5
3882.61	-37.5
3885.202	-21.5
3887.792	-50.5
3890.38	-80.5
3892.966	-102.5
3895.55	-117.5
3898.132	-128.5
3900.713	-129.5
3903.291	-136.5
3905.868	-133.5
3908.442	-134.5
3911.015	-130.5
3913.586	-136.5
3916.155	-129.5
3918.722	-138.5
3921.287	-135.5
3923.85	-139.5
3926.411	-129.5
3928.971	-136.5
3931.528	-130.5
3934.084	-133.5
3936.638	-135.5
3939.19	-133.5
3941.74	-130.5
3944.288	-136.5
3946.834	-129.5
3949.378	-133.5
3951.921	-127.5
3954.462	-132.5
3957	-128.5
3959.537	-128.5
3962.072	-123.5
3964.606	-130.5
3967.137	-135.5
3969.667	-132.5
3972.194	-131.5
3974.72	-134.5
3977.244	-130.5
3979.766	-134.5
3982.286	-133.5
3984.805	-130.5
3987.321	-124.5
3989.836	-128.5
3992.349	-122.5
3994.86	-125.5
3997.369	-128.5
3999.877	-121.5
4002.382	-123.5
4004.886	-126.5
4007.388	-125.5
4009.888	-129.5
4012.386	-128.5
4014.883	-129.5
4017.377	-124.5
4019.87	-124.5
4022.361	-128.5
4024.85	-128.5
4027.338	-121.5
4029.823	-124.5
4032.307	-127.5
4034.789	-127.5
4037.269	-126.5
4039.747	-128.5
4042.224	-130.5
4044.699	-127.5
4047.172	-127.5
4049.643	-123.5
4052.112	-126.5
4054.58	-131.5
4057.046	-128.5
4059.51	-126.5
4061.972	-127.5
4064.432	-128.5
4066.891	-129.5
4069.348	-125.5
4071.803	-125.5
4074.256	-124.5
4076.708	-127.5
4079.158	-130.5
4081.606	-127.5
4084.052	-133.5
4086.497	-128.5
4088.939	-130.5
4091.38	-130.5
4093.819	-130.5
4096.257	-133.5
4098.693	-137.5
4101.127	-137.5
4103.559	-139.5
4105.989	-0.5
4108.418	-4.5
4110.845	-1.5
4113.27	-4.5
4115.694	0.5
4118.115	7.5
4120.535	-125.5
4122.954	-130.5
4125.37	-132.5
4127.785	-131.5
4130.198	-124.5
4132.609	-129.5
4135.019	-136.5
4137.427	-133.5
4139.833	-133.5
4142.237	-139.5