File: Data/Raman/2017-08-29 - Alluminum 2/Aug 29 2017 - Aluminum 2/EC 12 3_RamanShift_1.txt
Data from EC 12 3_RamanShift_1.txt Node

Date: Tue Aug 29 12:37:07 IDT 2017
User: aro
Spectrometer: QEPB0276
Trigger mode: 0
Integration Time (sec): 3.000000E1
Scans to average: 1
Electric dark correction enabled: true
Nonlinearity correction enabled: false
Boxcar width: 0
XAxis mode: Raman Shifts
Number of Pixels in Spectrum: 1044
>>>>>Begin Spectral Data<<<<<
160.701	25.75
166.742	37.75
172.777	79.75
178.805	214.75
184.826	504.75
190.841	1029.75
196.849	1674.75
202.85	2113.75
208.845	2302.75
214.833	2319.75
220.815	2353.75
226.789	2403.75
232.758	2458.75
238.719	2503.75
244.674	2553.75
250.623	2585.75
256.565	2599.75
262.5	2642.75
268.429	2674.75
274.351	2700.75
280.267	2741.75
286.176	2800.75
292.079	2816.75
297.975	2878.75
303.865	2895.75
309.748	2945.75
315.625	2942.75
321.495	2971.75
327.359	3000.75
333.217	3024.75
339.068	3038.75
344.912	3065.75
350.751	3098.75
356.583	3089.75
362.408	3132.75
368.227	3169.75
374.04	3269.75
379.847	3420.75
385.647	3511.75
391.44	3436.75
397.228	3324.75
403.009	3348.75
408.784	3583.75
414.553	4002.75
420.315	4590.75
426.071	4606.75
431.821	4036.75
437.565	3534.75
443.302	3373.75
449.033	3300.75
454.758	3243.75
460.477	3196.75
466.189	3148.75
471.896	3079.75
477.596	3049.75
483.29	3024.75
488.978	3033.75
494.66	2996.75
500.335	2891.75
506.005	2708.75
511.668	2520.75
517.325	2332.75
522.977	2188.75
528.622	2080.75
534.261	2019.75
539.894	1967.75
545.521	1898.75
551.141	1889.75
556.756	1857.75
562.365	1840.75
567.968	1836.75
573.565	1829.75
579.155	1827.75
584.74	1826.75
590.319	1800.75
595.892	1786.75
601.459	1796.75
607.02	1795.75
612.575	1777.75
618.124	1750.75
623.667	1717.75
629.204	1722.75
634.735	1747.75
640.261	1885.75
645.781	2054.75
651.294	2128.75
656.802	1987.75
662.304	1776.75
667.8	1667.75
673.29	1612.75
678.775	1577.75
684.254	1568.75
689.726	1578.75
695.193	1544.75
700.655	1564.75
706.11	1521.75
711.56	1522.75
717.004	1503.75
722.442	1528.75
727.874	1526.75
733.301	1512.75
738.722	1537.75
744.137	1565.75
749.547	1620.75
754.951	1643.75
760.349	1633.75
765.741	1604.75
771.128	1594.75
776.509	1580.75
781.885	1641.75
787.254	1653.75
792.618	1655.75
797.977	1653.75
803.33	1638.75
808.677	1636.75
814.019	1617.75
819.355	1597.75
824.686	1584.75
830.011	1557.75
835.33	1552.75
840.644	1521.75
845.952	1511.75
851.255	1490.75
856.552	1461.75
861.844	1454.75
867.13	1430.75
872.41	1406.75
877.686	1391.75
882.955	1378.75
888.219	1377.75
893.478	1368.75
898.731	1337.75
903.979	1317.75
909.221	1319.75
914.458	1326.75
919.69	1306.75
924.916	1322.75
930.136	1316.75
935.351	1331.75
940.561	1325.75
945.766	1318.75
950.965	1322.75
956.158	1308.75
961.347	1294.75
966.529	1294.75
971.707	1250.75
976.879	1243.75
982.046	1226.75
987.208	1218.75
992.364	1235.75
997.515	1253.75
1002.66	1241.75
1007.801	1259.75
1012.936	1279.75
1018.066	1280.75
1023.19	1288.75
1028.309	1302.75
1033.423	1307.75
1038.532	1306.75
1043.636	1308.75
1048.734	1303.75
1053.827	1273.75
1058.915	1271.75
1063.998	1266.75
1069.075	1263.75
1074.147	1258.75
1079.214	1286.75
1084.276	1258.75
1089.333	1272.75
1094.385	1252.75
1099.431	1266.75
1104.472	1243.75
1109.509	1234.75
1114.54	1224.75
1119.565	1192.75
1124.586	1167.75
1129.602	1161.75
1134.613	1155.75
1139.618	1147.75
1144.619	1161.75
1149.614	1155.75
1154.604	1165.75
1159.589	1171.75
1164.57	1172.75
1169.545	1168.75
1174.515	1187.75
1179.48	1157.75
1184.44	1162.75
1189.395	1151.75
1194.345	1153.75
1199.29	1135.75
1204.23	1138.75
1209.165	1134.75
1214.095	1149.75
1219.021	1156.75
1223.941	1155.75
1228.856	1164.75
1233.766	1167.75
1238.672	1163.75
1243.572	1139.75
1248.467	1141.75
1253.358	1117.75
1258.244	1103.75
1263.124	1073.75
1268	1061.75
1272.871	1039.75
1277.737	1030.75
1282.599	1016.75
1287.455	1022.75
1292.306	1018.75
1297.153	1034.75
1301.995	1033.75
1306.832	1053.75
1311.664	1036.75
1316.491	1029.75
1321.314	1017.75
1326.132	1021.75
1330.945	998.75
1335.753	973.75
1340.556	957.75
1345.354	957.75
1350.148	947.75
1354.937	939.75
1359.722	947.75
1364.501	926.75
1369.276	925.75
1374.046	943.75
1378.811	952.75
1383.572	942.75
1388.327	949.75
1393.079	942.75
1397.825	918.75
1402.567	907.75
1407.304	888.75
1412.036	896.75
1416.764	879.75
1421.487	880.75
1426.205	870.75
1430.919	868.75
1435.628	883.75
1440.333	888.75
1445.032	894.75
1449.727	900.75
1454.418	903.75
1459.104	880.75
1463.785	874.75
1468.462	867.75
1473.134	853.75
1477.802	843.75
1482.465	841.75
1487.123	839.75
1491.777	843.75
1496.426	841.75
1501.071	851.75
1505.711	851.75
1510.347	859.75
1514.978	877.75
1519.604	886.75
1524.226	891.75
1528.844	881.75
1533.457	874.75
1538.065	856.75
1542.669	847.75
1547.269	828.75
1551.864	841.75
1556.454	845.75
1561.041	845.75
1565.622	834.75
1570.199	805.75
1574.772	798.75
1579.34	797.75
1583.904	803.75
1588.464	797.75
1593.019	783.75
1597.569	784.75
1602.115	765.75
1606.657	763.75
1611.195	746.75
1615.728	722.75
1620.256	718.75
1624.78	720.75
1629.3	722.75
1633.816	716.75
1638.327	719.75
1642.834	739.75
1647.336	728.75
1651.834	739.75
1656.328	732.75
1660.817	736.75
1665.302	732.75
1669.783	716.75
1674.259	717.75
1678.732	712.75
1683.199	714.75
1687.663	696.75
1692.122	703.75
1696.577	695.75
1701.028	686.75
1705.474	689.75
1709.917	703.75
1714.355	699.75
1718.788	698.75
1723.218	685.75
1727.643	681.75
1732.064	669.75
1736.481	665.75
1740.893	649.75
1745.301	632.75
1749.705	617.75
1754.105	608.75
1758.501	587.75
1762.893	587.75
1767.28	566.75
1771.663	571.75
1776.042	563.75
1780.417	563.75
1784.787	562.75
1789.154	577.75
1793.516	564.75
1797.874	593.75
1802.228	581.75
1806.578	585.75
1810.924	587.75
1815.266	582.75
1819.603	564.75
1823.937	549.75
1828.266	545.75
1832.591	534.75
1836.913	536.75
1841.23	533.75
1845.543	522.75
1849.852	527.75
1854.156	522.75
1858.457	522.75
1862.754	516.75
1867.047	532.75
1871.335	531.75
1875.62	527.75
1879.9	529.75
1884.177	526.75
1888.449	514.75
1892.718	519.75
1896.982	511.75
1901.243	495.75
1905.499	513.75
1909.752	509.75
1914	515.75
1918.245	517.75
1922.485	519.75
1926.722	510.75
1930.954	532.75
1935.183	523.75
1939.408	532.75
1943.628	533.75
1947.845	530.75
1952.058	519.75
1956.267	514.75
1960.472	503.75
1964.673	494.75
1968.87	484.75
1973.063	471.75
1977.252	457.75
1981.438	459.75
1985.619	450.75
1989.797	437.75
1993.971	441.75
1998.14	436.75
2002.306	426.75
2006.469	438.75
2010.627	425.75
2014.781	419.75
2018.932	428.75
2023.078	416.75
2027.221	417.75
2031.36	397.75
2035.495	403.75
2039.627	392.75
2043.754	394.75
2047.878	385.75
2051.998	385.75
2056.114	385.75
2060.226	393.75
2064.334	397.75
2068.439	392.75
2072.54	393.75
2076.637	395.75
2080.73	407.75
2084.82	397.75
2088.906	403.75
2092.988	412.75
2097.066	396.75
2101.14	388.75
2105.211	391.75
2109.278	394.75
2113.342	385.75
2117.401	380.75
2121.457	375.75
2125.509	375.75
2129.558	376.75
2133.602	358.75
2137.643	365.75
2141.681	354.75
2145.714	353.75
2149.744	343.75
2153.77	351.75
2157.793	353.75
2161.812	339.75
2165.827	345.75
2169.838	329.75
2173.846	331.75
2177.851	329.75
2181.851	317.75
2185.848	317.75
2189.841	316.75
2193.831	315.75
2197.817	306.75
2201.799	308.75
2205.778	298.75
2209.753	289.75
2213.725	309.75
2217.693	301.75
2221.657	315.75
2225.618	311.75
2229.575	306.75
2233.529	296.75
2237.479	304.75
2241.425	290.75
2245.368	294.75
2249.307	292.75
2253.243	281.75
2257.175	285.75
2261.104	275.75
2265.029	274.75
2268.95	270.75
2272.868	268.75
2276.783	255.75
2280.694	263.75
2284.601	260.75
2288.505	261.75
2292.405	263.75
2296.302	261.75
2300.195	245.75
2304.085	247.75
2307.971	243.75
2311.854	248.75
2315.734	239.75
2319.609	241.75
2323.482	230.75
2327.351	249.75
2331.216	268.75
2335.078	276.75
2338.937	256.75
2342.792	226.75
2346.643	225.75
2350.492	226.75
2354.336	221.75
2358.178	226.75
2362.015	218.75
2365.85	229.75
2369.681	226.75
2373.508	233.75
2377.333	230.75
2381.153	226.75
2384.971	223.75
2388.785	225.75
2392.595	223.75
2396.402	226.75
2400.206	225.75
2404.007	216.75
2407.804	212.75
2411.597	216.75
2415.388	215.75
2419.174	211.75
2422.958	210.75
2426.738	199.75
2430.515	205.75
2434.289	208.75
2438.059	204.75
2441.825	205.75
2445.589	197.75
2449.349	197.75
2453.106	192.75
2456.859	187.75
2460.61	190.75
2464.356	179.75
2468.1	176.75
2471.84	182.75
2475.577	184.75
2479.311	179.75
2483.041	185.75
2486.768	174.75
2490.492	174.75
2494.213	184.75
2497.93	177.75
2501.644	180.75
2505.355	170.75
2509.062	171.75
2512.766	173.75
2516.467	170.75
2520.165	170.75
2523.859	167.75
2527.551	168.75
2531.239	167.75
2534.923	159.75
2538.605	165.75
2542.283	161.75
2545.958	165.75
2549.63	172.75
2553.299	167.75
2556.964	165.75
2560.626	161.75
2564.285	158.75
2567.941	170.75
2571.594	164.75
2575.243	156.75
2578.89	162.75
2582.533	154.75
2586.173	157.75
2589.809	155.75
2593.443	156.75
2597.073	149.75
2600.701	154.75
2604.325	147.75
2607.946	152.75
2611.564	145.75
2615.178	136.75
2618.79	141.75
2622.398	140.75
2626.004	134.75
2629.606	135.75
2633.205	135.75
2636.801	131.75
2640.394	136.75
2643.983	127.75
2647.57	128.75
2651.153	118.75
2654.734	122.75
2658.311	119.75
2661.885	112.75
2665.456	114.75
2669.025	104.75
2672.589	108.75
2676.151	108.75
2679.71	103.75
2683.266	104.75
2686.819	103.75
2690.368	99.75
2693.915	97.75
2697.458	87.75
2700.999	89.75
2704.536	85.75
2708.071	88.75
2711.602	84.75
2715.13	81.75
2718.656	77.75
2722.178	76.75
2725.697	68.75
2729.214	76.75
2732.727	78.75
2736.237	77.75
2739.744	71.75
2743.249	81.75
2746.75	74.75
2750.248	75.75
2753.743	71.75
2757.236	80.75
2760.725	68.75
2764.211	64.75
2767.695	79.75
2771.175	77.75
2774.652	69.75
2778.127	74.75
2781.598	65.75
2785.067	62.75
2788.532	68.75
2791.995	58.75
2795.455	64.75
2798.911	65.75
2802.365	58.75
2805.816	65.75
2809.264	57.75
2812.709	60.75
2816.151	62.75
2819.59	63.75
2823.026	60.75
2826.46	58.75
2829.89	55.75
2833.318	56.75
2836.742	62.75
2840.164	55.75
2843.583	61.75
2846.999	56.75
2850.412	53.75
2853.822	54.75
2857.229	55.75
2860.634	56.75
2864.035	53.75
2867.434	54.75
2870.83	52.75
2874.223	41.75
2877.613	40.75
2881	38.75
2884.385	38.75
2887.766	37.75
2891.145	39.75
2894.521	41.75
2897.894	25.75
2901.264	31.75
2904.631	25.75
2907.996	27.75
2911.358	27.75
2914.717	27.75
2918.073	23.75
2921.426	25.75
2924.777	18.75
2928.124	17.75
2931.469	28.75
2934.811	17.75
2938.15	20.75
2941.487	18.75
2944.821	15.75
2948.152	4.75
2951.48	8.75
2954.805	14.75
2958.128	5.75
2961.447	7.75
2964.765	3.75
2968.079	16.75
2971.39	5.75
2974.699	8.75
2978.005	6.75
2981.308	4.75
2984.609	8.75
2987.907	4.75
2991.202	6.75
2994.494	10.75
2997.784	10.75
3001.07	4.75
3004.355	6.75
3007.636	6.75
3010.915	-0.25
3014.191	1.75
3017.464	1.75
3020.734	10.75
3024.002	-7.25
3027.267	-0.25
3030.53	-11.25
3033.789	-4.25
3037.046	-12.25
3040.301	-7.25
3043.552	-16.25
3046.801	-15.25
3050.048	-15.25
3053.291	-15.25
3056.532	-12.25
3059.771	-9.25
3063.006	-22.25
3066.239	-12.25
3069.469	-14.25
3072.697	-25.25
3075.922	-19.25
3079.144	-17.25
3082.364	-19.25
3085.581	-20.25
3088.795	-26.25
3092.007	-30.25
3095.216	-24.25
3098.423	-16.25
3101.627	-21.25
3104.828	-24.25
3108.026	-22.25
3111.222	-27.25
3114.416	-20.25
3117.607	-21.25
3120.795	-23.25
3123.98	-26.25
3127.163	-22.25
3130.344	-27.25
3133.521	-32.25
3136.696	-20.25
3139.869	-29.25
3143.039	-23.25
3146.206	-36.25
3149.371	-34.25
3152.533	-35.25
3155.693	-35.25
3158.85	-33.25
3162.005	-36.25
3165.157	-40.25
3168.306	-30.25
3171.453	-39.25
3174.597	-35.25
3177.739	-35.25
3180.878	-50.25
3184.014	-46.25
3187.149	-36.25
3190.28	-45.25
3193.409	-43.25
3196.536	-51.25
3199.659	-40.25
3202.781	-47.25
3205.9	-42.25
3209.016	-55.25
3212.13	-50.25
3215.241	-52.25
3218.35	-42.25
3221.456	-47.25
3224.56	-49.25
3227.661	-50.25
3230.76	-52.25
3233.856	-54.25
3236.95	-54.25
3240.041	-50.25
3243.13	-56.25
3246.216	-55.25
3249.3	-54.25
3252.382	-49.25
3255.46	-49.25
3258.537	-21.25
3261.611	-52.25
3264.682	-51.25
3267.751	-43.25
3270.818	-51.25
3273.882	-54.25
3276.943	-55.25
3280.002	-47.25
3283.059	-60.25
3286.113	-51.25
3289.165	-50.25
3292.214	-56.25
3295.261	-50.25
3298.306	-51.25
3301.348	-64.25
3304.387	-63.25
3307.425	-56.25
3310.459	-60.25
3313.492	-62.25
3316.521	-64.25
3319.549	-60.25
3322.574	-65.25
3325.597	-68.25
3328.617	-62.25
3331.635	-66.25
3334.65	-65.25
3337.663	-70.25
3340.674	-61.25
3343.682	-62.25
3346.688	-63.25
3349.691	-68.25
3352.692	-58.25
3355.691	-63.25
3358.687	-66.25
3361.681	-65.25
3364.673	-65.25
3367.662	-64.25
3370.649	-69.25
3373.633	-64.25
3376.615	-71.25
3379.595	-67.25
3382.572	-65.25
3385.547	-70.25
3388.52	-64.25
3391.49	-69.25
3394.458	-69.25
3397.424	-65.25
3400.387	-64.25
3403.348	-65.25
3406.307	-60.25
3409.263	-71.25
3412.217	-70.25
3415.168	-70.25
3418.118	-68.25
3421.065	-68.25
3424.009	-64.25
3426.951	-72.25
3429.891	-68.25
3432.829	-70.25
3435.764	-74.25
3438.697	-72.25
3441.628	-69.25
3444.557	-68.25
3447.483	-75.25
3450.407	-74.25
3453.328	-64.25
3456.247	-74.25
3459.164	-72.25
3462.079	-73.25
3464.991	-75.25
3467.902	-78.25
3470.809	-75.25
3473.715	-75.25
3476.618	-74.25
3479.519	-70.25
3482.418	-71.25
3485.315	-77.25
3488.209	-81.25
3491.101	-72.25
3493.99	-74.25
3496.878	-79.25
3499.763	-79.25
3502.646	-78.25
3505.527	-82.25
3508.405	-78.25
3511.281	-73.25
3514.155	-76.25
3517.027	-79.25
3519.897	-80.25
3522.764	-73.25
3525.629	-78.25
3528.492	-73.25
3531.352	-75.25
3534.211	-79.25
3537.067	-75.25
3539.921	-75.25
3542.773	-79.25
3545.622	-79.25
3548.469	-74.25
3551.315	-69.25
3554.157	-72.25
3556.998	-78.25
3559.837	-71.25
3562.673	-74.25
3565.507	-74.25
3568.339	-74.25
3571.169	-78.25
3573.996	-80.25
3576.822	-78.25
3579.645	-78.25
3582.466	-74.25
3585.285	-75.25
3588.101	-80.25
3590.916	-81.25
3593.728	-74.25
3596.538	-83.25
3599.346	-82.25
3602.152	-79.25
3604.956	-78.25
3607.757	-82.25
3610.556	-77.25
3613.354	-80.25
3616.149	-81.25
3618.942	-81.25
3621.732	-85.25
3624.521	-82.25
3627.307	-80.25
3630.092	-80.25
3632.874	-78.25
3635.654	-79.25
3638.432	-82.25
3641.208	-87.25
3643.982	-81.25
3646.753	-83.25
3649.523	-87.25
3652.29	-89.25
3655.055	-80.25
3657.818	-85.25
3660.579	-86.25
3663.338	-89.25
3666.095	-82.25
3668.849	-81.25
3671.602	-84.25
3674.352	-85.25
3677.101	-79.25
3679.847	-88.25
3682.591	-81.25
3685.333	-82.25
3688.073	-83.25
3690.811	-85.25
3693.547	-83.25
3696.281	-80.25
3699.013	-79.25
3701.742	-83.25
3704.47	-90.25
3707.195	-83.25
3709.919	-83.25
3712.64	-86.25
3715.359	-83.25
3718.076	-82.25
3720.792	-87.25
3723.505	-88.25
3726.216	-86.25
3728.925	-87.25
3731.632	-87.25
3734.336	-90.25
3737.039	-88.25
3739.74	-83.25
3742.439	-83.25
3745.136	-90.25
3747.83	-89.25
3750.523	-85.25
3753.213	-109.25
3755.902	-84.25
3758.589	-91.25
3761.273	-94.25
3763.956	-82.25
3766.636	-87.25
3769.315	-87.25
3771.991	-88.25
3774.665	-81.25
3777.338	-84.25
3780.008	-90.25
3782.677	-89.25
3785.343	-90.25
3788.007	-90.25
3790.67	-90.25
3793.33	-88.25
3795.989	-86.25
3798.645	-94.25
3801.299	-82.25
3803.952	-89.25
3806.602	-91.25
3809.251	-89.25
3811.897	-87.25
3814.542	-86.25
3817.184	-86.25
3819.825	-89.25
3822.463	-84.25
3825.1	-91.25
3827.735	-86.25
3830.367	-93.25
3832.998	-82.25
3835.627	-83.25
3838.253	-87.25
3840.878	-88.25
3843.501	-84.25
3846.122	-85.25
3848.741	-86.25
3851.358	-88.25
3853.973	-78.25
3856.586	-93.25
3859.197	-79.25
3861.806	-79.25
3864.414	-87.25
3867.019	-83.25
3869.622	-77.25
3872.224	-66.25
3874.823	-52.25
3877.421	-32.25
3880.016	2.75
3882.61	31.75
3885.202	51.75
3887.792	15.75
3890.38	-28.25
3892.966	-59.25
3895.55	-76.25
3898.132	-83.25
3900.713	-86.25
3903.291	-87.25
3905.868	-82.25
3908.442	-86.25
3911.015	-85.25
3913.586	-88.25
3916.155	-83.25
3918.722	-79.25
3921.287	-86.25
3923.85	-90.25
3926.411	-86.25
3928.971	-85.25
3931.528	-83.25
3934.084	-91.25
3936.638	-90.25
3939.19	-83.25
3941.74	-88.25
3944.288	-89.25
3946.834	-82.25
3949.378	-91.25
3951.921	-86.25
3954.462	-88.25
3957	-86.25
3959.537	-81.25
3962.072	-81.25
3964.606	-78.25
3967.137	-81.25
3969.667	-87.25
3972.194	-87.25
3974.72	-89.25
3977.244	-83.25
3979.766	-88.25
3982.286	-87.25
3984.805	-84.25
3987.321	-81.25
3989.836	-84.25
3992.349	-82.25
3994.86	-85.25
3997.369	-89.25
3999.877	-81.25
4002.382	-83.25
4004.886	-85.25
4007.388	-83.25
4009.888	-82.25
4012.386	-82.25
4014.883	-87.25
4017.377	-84.25
4019.87	-80.25
4022.361	-84.25
4024.85	-87.25
4027.338	-82.25
4029.823	-86.25
4032.307	-87.25
4034.789	-84.25
4037.269	-86.25
4039.747	-90.25
4042.224	-83.25
4044.699	-84.25
4047.172	-84.25
4049.643	-80.25
4052.112	-81.25
4054.58	-92.25
4057.046	-88.25
4059.51	-92.25
4061.972	-88.25
4064.432	-88.25
4066.891	-91.25
4069.348	-81.25
4071.803	-86.25
4074.256	-77.25
4076.708	-86.25
4079.158	-92.25
4081.606	-86.25
4084.052	-93.25
4086.497	-88.25
4088.939	-88.25
4091.38	-84.25
4093.819	-87.25
4096.257	-86.25
4098.693	-89.25
4101.127	-90.25
4103.559	-91.25
4105.989	35.75
4108.418	33.75
4110.845	23.75
4113.27	18.75
4115.694	16.75
4118.115	20.75
4120.535	-88.25
4122.954	-82.25
4125.37	-87.25
4127.785	-85.25
4130.198	-88.25
4132.609	-87.25
4135.019	-88.25
4137.427	-88.25
4139.833	-88.25
4142.237	-93.25