File: Data/Raman/2017-08-29 - Alluminum 2/Aug 29 2017 - Aluminum 2/EC 110 4_RamanShift_2.txt
Data from EC 110 4_RamanShift_2.txt Node

Date: Tue Aug 29 12:35:37 IDT 2017
User: aro
Spectrometer: QEPB0276
Trigger mode: 0
Integration Time (sec): 3.000000E1
Scans to average: 1
Electric dark correction enabled: true
Nonlinearity correction enabled: false
Boxcar width: 0
XAxis mode: Raman Shifts
Number of Pixels in Spectrum: 1044
>>>>>Begin Spectral Data<<<<<
160.701	27.75
166.742	33.75
172.777	73.75
178.805	166.75
184.826	398.75
190.841	796.75
196.849	1275.75
202.85	1598.75
208.845	1728.75
214.833	1741.75
220.815	1759.75
226.789	1786.75
232.758	1795.75
238.719	1851.75
244.674	1862.75
250.623	1889.75
256.565	1892.75
262.5	1901.75
268.429	1927.75
274.351	1959.75
280.267	1989.75
286.176	2025.75
292.079	2045.75
297.975	2070.75
303.865	2106.75
309.748	2140.75
315.625	2158.75
321.495	2173.75
327.359	2188.75
333.217	2208.75
339.068	2231.75
344.912	2278.75
350.751	2296.75
356.583	2314.75
362.408	2345.75
368.227	2398.75
374.04	2521.75
379.847	2674.75
385.647	2747.75
391.44	2700.75
397.228	2571.75
403.009	2591.75
408.784	2856.75
414.553	3340.75
420.315	3962.75
426.071	3992.75
431.821	3348.75
437.565	2796.75
443.302	2635.75
449.033	2512.75
454.758	2463.75
460.477	2437.75
466.189	2369.75
471.896	2308.75
477.596	2298.75
483.29	2273.75
488.978	2278.75
494.66	2222.75
500.335	2121.75
506.005	1934.75
511.668	1713.75
517.325	1562.75
522.977	1415.75
528.622	1294.75
534.261	1226.75
539.894	1168.75
545.521	1121.75
551.141	1091.75
556.756	1082.75
562.365	1061.75
567.968	1046.75
573.565	1048.75
579.155	1053.75
584.74	1060.75
590.319	1049.75
595.892	1022.75
601.459	1029.75
607.02	1046.75
612.575	1017.75
618.124	1005.75
623.667	983.75
629.204	968.75
634.735	1020.75
640.261	1157.75
645.781	1341.75
651.294	1434.75
656.802	1282.75
662.304	1046.75
667.8	931.75
673.29	877.75
678.775	853.75
684.254	851.75
689.726	839.75
695.193	824.75
700.655	804.75
706.11	788.75
711.56	804.75
717.004	804.75
722.442	801.75
727.874	784.75
733.301	812.75
738.722	847.75
744.137	866.75
749.547	926.75
754.951	970.75
760.349	940.75
765.741	907.75
771.128	889.75
776.509	889.75
781.885	941.75
787.254	960.75
792.618	986.75
797.977	979.75
803.33	974.75
808.677	961.75
814.019	964.75
819.355	939.75
824.686	909.75
830.011	905.75
835.33	883.75
840.644	867.75
845.952	860.75
851.255	829.75
856.552	795.75
861.844	765.75
867.13	740.75
872.41	733.75
877.686	725.75
882.955	707.75
888.219	684.75
893.478	684.75
898.731	683.75
903.979	675.75
909.221	670.75
914.458	675.75
919.69	672.75
924.916	677.75
930.136	669.75
935.351	670.75
940.561	667.75
945.766	664.75
950.965	664.75
956.158	656.75
961.347	657.75
966.529	643.75
971.707	639.75
976.879	628.75
982.046	637.75
987.208	632.75
992.364	637.75
997.515	638.75
1002.66	632.75
1007.801	652.75
1012.936	653.75
1018.066	661.75
1023.19	677.75
1028.309	672.75
1033.423	685.75
1038.532	691.75
1043.636	698.75
1048.734	702.75
1053.827	699.75
1058.915	684.75
1063.998	698.75
1069.075	678.75
1074.147	682.75
1079.214	685.75
1084.276	686.75
1089.333	683.75
1094.385	665.75
1099.431	676.75
1104.472	660.75
1109.509	649.75
1114.54	628.75
1119.565	629.75
1124.586	609.75
1129.602	590.75
1134.613	613.75
1139.618	607.75
1144.619	605.75
1149.614	610.75
1154.604	602.75
1159.589	621.75
1164.57	621.75
1169.545	633.75
1174.515	642.75
1179.48	620.75
1184.44	622.75
1189.395	622.75
1194.345	636.75
1199.29	622.75
1204.23	619.75
1209.165	640.75
1214.095	618.75
1219.021	627.75
1223.941	638.75
1228.856	640.75
1233.766	631.75
1238.672	622.75
1243.572	623.75
1248.467	615.75
1253.358	595.75
1258.244	595.75
1263.124	560.75
1268	559.75
1272.871	548.75
1277.737	549.75
1282.599	549.75
1287.455	540.75
1292.306	544.75
1297.153	549.75
1301.995	551.75
1306.832	559.75
1311.664	545.75
1316.491	543.75
1321.314	551.75
1326.132	560.75
1330.945	539.75
1335.753	544.75
1340.556	534.75
1345.354	525.75
1350.148	530.75
1354.937	519.75
1359.722	521.75
1364.501	509.75
1369.276	514.75
1374.046	509.75
1378.811	522.75
1383.572	499.75
1388.327	510.75
1393.079	499.75
1397.825	497.75
1402.567	480.75
1407.304	480.75
1412.036	465.75
1416.764	482.75
1421.487	469.75
1426.205	467.75
1430.919	476.75
1435.628	488.75
1440.333	483.75
1445.032	478.75
1449.727	485.75
1454.418	497.75
1459.104	491.75
1463.785	483.75
1468.462	484.75
1473.134	497.75
1477.802	479.75
1482.465	476.75
1487.123	480.75
1491.777	479.75
1496.426	485.75
1501.071	486.75
1505.711	507.75
1510.347	507.75
1514.978	508.75
1519.604	514.75
1524.226	503.75
1528.844	492.75
1533.457	488.75
1538.065	478.75
1542.669	479.75
1547.269	462.75
1551.864	470.75
1556.454	475.75
1561.041	483.75
1565.622	465.75
1570.199	451.75
1574.772	452.75
1579.34	443.75
1583.904	455.75
1588.464	434.75
1593.019	447.75
1597.569	441.75
1602.115	423.75
1606.657	428.75
1611.195	437.75
1615.728	413.75
1620.256	426.75
1624.78	409.75
1629.3	403.75
1633.816	412.75
1638.327	411.75
1642.834	422.75
1647.336	415.75
1651.834	426.75
1656.328	425.75
1660.817	435.75
1665.302	429.75
1669.783	420.75
1674.259	422.75
1678.732	422.75
1683.199	428.75
1687.663	423.75
1692.122	428.75
1696.577	423.75
1701.028	417.75
1705.474	414.75
1709.917	418.75
1714.355	427.75
1718.788	393.75
1723.218	401.75
1727.643	398.75
1732.064	387.75
1736.481	372.75
1740.893	361.75
1745.301	361.75
1749.705	363.75
1754.105	363.75
1758.501	343.75
1762.893	344.75
1767.28	339.75
1771.663	330.75
1776.042	327.75
1780.417	333.75
1784.787	327.75
1789.154	346.75
1793.516	328.75
1797.874	349.75
1802.228	348.75
1806.578	346.75
1810.924	343.75
1815.266	333.75
1819.603	317.75
1823.937	316.75
1828.266	302.75
1832.591	305.75
1836.913	305.75
1841.23	297.75
1845.543	303.75
1849.852	304.75
1854.156	289.75
1858.457	286.75
1862.754	294.75
1867.047	298.75
1871.335	313.75
1875.62	302.75
1879.9	310.75
1884.177	302.75
1888.449	307.75
1892.718	304.75
1896.982	307.75
1901.243	290.75
1905.499	294.75
1909.752	299.75
1914	305.75
1918.245	309.75
1922.485	315.75
1926.722	306.75
1930.954	326.75
1935.183	314.75
1939.408	316.75
1943.628	327.75
1947.845	310.75
1952.058	313.75
1956.267	303.75
1960.472	297.75
1964.673	291.75
1968.87	271.75
1973.063	281.75
1977.252	263.75
1981.438	262.75
1985.619	259.75
1989.797	246.75
1993.971	249.75
1998.14	248.75
2002.306	244.75
2006.469	253.75
2010.627	253.75
2014.781	248.75
2018.932	251.75
2023.078	240.75
2027.221	241.75
2031.36	238.75
2035.495	236.75
2039.627	223.75
2043.754	233.75
2047.878	228.75
2051.998	223.75
2056.114	222.75
2060.226	225.75
2064.334	231.75
2068.439	230.75
2072.54	232.75
2076.637	238.75
2080.73	240.75
2084.82	234.75
2088.906	231.75
2092.988	244.75
2097.066	246.75
2101.14	231.75
2105.211	223.75
2109.278	219.75
2113.342	228.75
2117.401	217.75
2121.457	216.75
2125.509	215.75
2129.558	217.75
2133.602	204.75
2137.643	205.75
2141.681	198.75
2145.714	196.75
2149.744	195.75
2153.77	196.75
2157.793	191.75
2161.812	193.75
2165.827	185.75
2169.838	186.75
2173.846	183.75
2177.851	182.75
2181.851	173.75
2185.848	177.75
2189.841	173.75
2193.831	157.75
2197.817	171.75
2201.799	172.75
2205.778	167.75
2209.753	163.75
2213.725	174.75
2217.693	168.75
2221.657	171.75
2225.618	174.75
2229.575	169.75
2233.529	172.75
2237.479	174.75
2241.425	158.75
2245.368	160.75
2249.307	159.75
2253.243	161.75
2257.175	149.75
2261.104	157.75
2265.029	153.75
2268.95	139.75
2272.868	148.75
2276.783	143.75
2280.694	142.75
2284.601	140.75
2288.505	145.75
2292.405	139.75
2296.302	133.75
2300.195	138.75
2304.085	134.75
2307.971	130.75
2311.854	129.75
2315.734	128.75
2319.609	132.75
2323.482	132.75
2327.351	146.75
2331.216	155.75
2335.078	155.75
2338.937	148.75
2342.792	122.75
2346.643	125.75
2350.492	116.75
2354.336	112.75
2358.178	118.75
2362.015	115.75
2365.85	118.75
2369.681	119.75
2373.508	118.75
2377.333	115.75
2381.153	120.75
2384.971	116.75
2388.785	115.75
2392.595	111.75
2396.402	111.75
2400.206	103.75
2404.007	111.75
2407.804	104.75
2411.597	114.75
2415.388	114.75
2419.174	108.75
2422.958	103.75
2426.738	107.75
2430.515	101.75
2434.289	103.75
2438.059	97.75
2441.825	96.75
2445.589	99.75
2449.349	95.75
2453.106	88.75
2456.859	94.75
2460.61	101.75
2464.356	89.75
2468.1	85.75
2471.84	82.75
2475.577	92.75
2479.311	91.75
2483.041	91.75
2486.768	82.75
2490.492	84.75
2494.213	83.75
2497.93	87.75
2501.644	79.75
2505.355	84.75
2509.062	84.75
2512.766	81.75
2516.467	83.75
2520.165	78.75
2523.859	83.75
2527.551	78.75
2531.239	81.75
2534.923	80.75
2538.605	77.75
2542.283	76.75
2545.958	77.75
2549.63	78.75
2553.299	78.75
2556.964	85.75
2560.626	76.75
2564.285	76.75
2567.941	81.75
2571.594	81.75
2575.243	69.75
2578.89	76.75
2582.533	70.75
2586.173	70.75
2589.809	69.75
2593.443	63.75
2597.073	63.75
2600.701	64.75
2604.325	70.75
2607.946	67.75
2611.564	68.75
2615.178	63.75
2618.79	58.75
2622.398	61.75
2626.004	59.75
2629.606	58.75
2633.205	50.75
2636.801	57.75
2640.394	56.75
2643.983	50.75
2647.57	45.75
2651.153	49.75
2654.734	54.75
2658.311	46.75
2661.885	38.75
2665.456	48.75
2669.025	46.75
2672.589	47.75
2676.151	39.75
2679.71	35.75
2683.266	42.75
2686.819	40.75
2690.368	41.75
2693.915	36.75
2697.458	33.75
2700.999	28.75
2704.536	31.75
2708.071	32.75
2711.602	25.75
2715.13	31.75
2718.656	31.75
2722.178	26.75
2725.697	21.75
2729.214	27.75
2732.727	37.75
2736.237	29.75
2739.744	29.75
2743.249	33.75
2746.75	30.75
2750.248	29.75
2753.743	25.75
2757.236	28.75
2760.725	26.75
2764.211	16.75
2767.695	32.75
2771.175	26.75
2774.652	24.75
2778.127	30.75
2781.598	21.75
2785.067	19.75
2788.532	25.75
2791.995	10.75
2795.455	24.75
2798.911	18.75
2802.365	24.75
2805.816	22.75
2809.264	18.75
2812.709	21.75
2816.151	19.75
2819.59	31.75
2823.026	22.75
2826.46	25.75
2829.89	14.75
2833.318	20.75
2836.742	24.75
2840.164	12.75
2843.583	15.75
2846.999	23.75
2850.412	18.75
2853.822	14.75
2857.229	21.75
2860.634	17.75
2864.035	10.75
2867.434	17.75
2870.83	16.75
2874.223	10.75
2877.613	9.75
2881	11.75
2884.385	5.75
2887.766	9.75
2891.145	4.75
2894.521	5.75
2897.894	-0.25
2901.264	3.75
2904.631	-7.25
2907.996	-4.25
2911.358	1.75
2914.717	-1.25
2918.073	-12.25
2921.426	-5.25
2924.777	-6.25
2928.124	-5.25
2931.469	-4.25
2934.811	-1.25
2938.15	-5.25
2941.487	-10.25
2944.821	-11.25
2948.152	-15.25
2951.48	-13.25
2954.805	-6.25
2958.128	-15.25
2961.447	-15.25
2964.765	-22.25
2968.079	-8.25
2971.39	-16.25
2974.699	-10.25
2978.005	-15.25
2981.308	-16.25
2984.609	-18.25
2987.907	-15.25
2991.202	-13.25
2994.494	-13.25
2997.784	-16.25
3001.07	-16.25
3004.355	-15.25
3007.636	-19.25
3010.915	-21.25
3014.191	-22.25
3017.464	-22.25
3020.734	-18.25
3024.002	-27.25
3027.267	-21.25
3030.53	-24.25
3033.789	-21.25
3037.046	-32.25
3040.301	-30.25
3043.552	-28.25
3046.801	-29.25
3050.048	-32.25
3053.291	-30.25
3056.532	-35.25
3059.771	-31.25
3063.006	-35.25
3066.239	-34.25
3069.469	-32.25
3072.697	-36.25
3075.922	-36.25
3079.144	-30.25
3082.364	-35.25
3085.581	-34.25
3088.795	-39.25
3092.007	-40.25
3095.216	-36.25
3098.423	-34.25
3101.627	-32.25
3104.828	-33.25
3108.026	-38.25
3111.222	-34.25
3114.416	-28.25
3117.607	-32.25
3120.795	-33.25
3123.98	-33.25
3127.163	-39.25
3130.344	-38.25
3133.521	-39.25
3136.696	-38.25
3139.869	-34.25
3143.039	-39.25
3146.206	-38.25
3149.371	-37.25
3152.533	-36.25
3155.693	-37.25
3158.85	-37.25
3162.005	-46.25
3165.157	-37.25
3168.306	-33.25
3171.453	-37.25
3174.597	-39.25
3177.739	-39.25
3180.878	-43.25
3184.014	-46.25
3187.149	-41.25
3190.28	-46.25
3193.409	-42.25
3196.536	-50.25
3199.659	-46.25
3202.781	-45.25
3205.9	-44.25
3209.016	-50.25
3212.13	-51.25
3215.241	-43.25
3218.35	-43.25
3221.456	-50.25
3224.56	-50.25
3227.661	-51.25
3230.76	-53.25
3233.856	-55.25
3236.95	-52.25
3240.041	-48.25
3243.13	-54.25
3246.216	-49.25
3249.3	-54.25
3252.382	-47.25
3255.46	-45.25
3258.537	-19.25
3261.611	-51.25
3264.682	-53.25
3267.751	-45.25
3270.818	-56.25
3273.882	-52.25
3276.943	-54.25
3280.002	-56.25
3283.059	-58.25
3286.113	-54.25
3289.165	-58.25
3292.214	-55.25
3295.261	-55.25
3298.306	-52.25
3301.348	-56.25
3304.387	-57.25
3307.425	-58.25
3310.459	-59.25
3313.492	-56.25
3316.521	-65.25
3319.549	-57.25
3322.574	-61.25
3325.597	-62.25
3328.617	-62.25
3331.635	-60.25
3334.65	-57.25
3337.663	-68.25
3340.674	-57.25
3343.682	-59.25
3346.688	-60.25
3349.691	-62.25
3352.692	-61.25
3355.691	-59.25
3358.687	-56.25
3361.681	-59.25
3364.673	-62.25
3367.662	-60.25
3370.649	-62.25
3373.633	-54.25
3376.615	-58.25
3379.595	-60.25
3382.572	-59.25
3385.547	-65.25
3388.52	-55.25
3391.49	-55.25
3394.458	-64.25
3397.424	-59.25
3400.387	-61.25
3403.348	-58.25
3406.307	-55.25
3409.263	-59.25
3412.217	-56.25
3415.168	-61.25
3418.118	-60.25
3421.065	-55.25
3424.009	-59.25
3426.951	-58.25
3429.891	-59.25
3432.829	-55.25
3435.764	-59.25
3438.697	-58.25
3441.628	-66.25
3444.557	-59.25
3447.483	-61.25
3450.407	-67.25
3453.328	-56.25
3456.247	-60.25
3459.164	-59.25
3462.079	-62.25
3464.991	-61.25
3467.902	-63.25
3470.809	-69.25
3473.715	-66.25
3476.618	-65.25
3479.519	-59.25
3482.418	-67.25
3485.315	-69.25
3488.209	-69.25
3491.101	-65.25
3493.99	-67.25
3496.878	-65.25
3499.763	-72.25
3502.646	-64.25
3505.527	-74.25
3508.405	-68.25
3511.281	-72.25
3514.155	-62.25
3517.027	-69.25
3519.897	-68.25
3522.764	-64.25
3525.629	-69.25
3528.492	-68.25
3531.352	-65.25
3534.211	-71.25
3537.067	-66.25
3539.921	-64.25
3542.773	-70.25
3545.622	-68.25
3548.469	-68.25
3551.315	-66.25
3554.157	-66.25
3556.998	-69.25
3559.837	-63.25
3562.673	-64.25
3565.507	-68.25
3568.339	-68.25
3571.169	-70.25
3573.996	-68.25
3576.822	-63.25
3579.645	-74.25
3582.466	-67.25
3585.285	-69.25
3588.101	-70.25
3590.916	-73.25
3593.728	-69.25
3596.538	-71.25
3599.346	-77.25
3602.152	-70.25
3604.956	-66.25
3607.757	-69.25
3610.556	-71.25
3613.354	-69.25
3616.149	-75.25
3618.942	-70.25
3621.732	-70.25
3624.521	-68.25
3627.307	-74.25
3630.092	-72.25
3632.874	-74.25
3635.654	-65.25
3638.432	-66.25
3641.208	-71.25
3643.982	-68.25
3646.753	-72.25
3649.523	-75.25
3652.29	-68.25
3655.055	-66.25
3657.818	-72.25
3660.579	-68.25
3663.338	-69.25
3666.095	-67.25
3668.849	-70.25
3671.602	-72.25
3674.352	-69.25
3677.101	-66.25
3679.847	-77.25
3682.591	-70.25
3685.333	-71.25
3688.073	-70.25
3690.811	-71.25
3693.547	-68.25
3696.281	-69.25
3699.013	-71.25
3701.742	-69.25
3704.47	-74.25
3707.195	-67.25
3709.919	-66.25
3712.64	-73.25
3715.359	-67.25
3718.076	-66.25
3720.792	-75.25
3723.505	-67.25
3726.216	-76.25
3728.925	-71.25
3731.632	-75.25
3734.336	-73.25
3737.039	-74.25
3739.74	-70.25
3742.439	-67.25
3745.136	-71.25
3747.83	-75.25
3750.523	-71.25
3753.213	-93.25
3755.902	-76.25
3758.589	-76.25
3761.273	-79.25
3763.956	-69.25
3766.636	-72.25
3769.315	-76.25
3771.991	-70.25
3774.665	-70.25
3777.338	-70.25
3780.008	-82.25
3782.677	-73.25
3785.343	-77.25
3788.007	-78.25
3790.67	-71.25
3793.33	-76.25
3795.989	-71.25
3798.645	-78.25
3801.299	-71.25
3803.952	-76.25
3806.602	-79.25
3809.251	-77.25
3811.897	-75.25
3814.542	-78.25
3817.184	-75.25
3819.825	-76.25
3822.463	-73.25
3825.1	-79.25
3827.735	-71.25
3830.367	-78.25
3832.998	-74.25
3835.627	-75.25
3838.253	-73.25
3840.878	-71.25
3843.501	-69.25
3846.122	-71.25
3848.741	-71.25
3851.358	-73.25
3853.973	-72.25
3856.586	-74.25
3859.197	-67.25
3861.806	-74.25
3864.414	-75.25
3867.019	-71.25
3869.622	-64.25
3872.224	-50.25
3874.823	-37.25
3877.421	-18.25
3880.016	28.75
3882.61	52.75
3885.202	68.75
3887.792	36.75
3890.38	-9.25
3892.966	-40.25
3895.55	-61.25
3898.132	-69.25
3900.713	-72.25
3903.291	-76.25
3905.868	-72.25
3908.442	-70.25
3911.015	-72.25
3913.586	-85.25
3916.155	-74.25
3918.722	-74.25
3921.287	-73.25
3923.85	-79.25
3926.411	-73.25
3928.971	-74.25
3931.528	-74.25
3934.084	-78.25
3936.638	-80.25
3939.19	-75.25
3941.74	-75.25
3944.288	-73.25
3946.834	-71.25
3949.378	-78.25
3951.921	-72.25
3954.462	-77.25
3957	-76.25
3959.537	-64.25
3962.072	-65.25
3964.606	-70.25
3967.137	-72.25
3969.667	-72.25
3972.194	-75.25
3974.72	-72.25
3977.244	-77.25
3979.766	-77.25
3982.286	-71.25
3984.805	-74.25
3987.321	-71.25
3989.836	-74.25
3992.349	-69.25
3994.86	-75.25
3997.369	-75.25
3999.877	-64.25
4002.382	-65.25
4004.886	-70.25
4007.388	-69.25
4009.888	-71.25
4012.386	-69.25
4014.883	-77.25
4017.377	-68.25
4019.87	-70.25
4022.361	-74.25
4024.85	-70.25
4027.338	-65.25
4029.823	-69.25
4032.307	-69.25
4034.789	-71.25
4037.269	-69.25
4039.747	-73.25
4042.224	-68.25
4044.699	-67.25
4047.172	-72.25
4049.643	-72.25
4052.112	-65.25
4054.58	-75.25
4057.046	-69.25
4059.51	-73.25
4061.972	-68.25
4064.432	-67.25
4066.891	-73.25
4069.348	-68.25
4071.803	-72.25
4074.256	-69.25
4076.708	-75.25
4079.158	-75.25
4081.606	-70.25
4084.052	-75.25
4086.497	-73.25
4088.939	-75.25
4091.38	-72.25
4093.819	-73.25
4096.257	-73.25
4098.693	-78.25
4101.127	-78.25
4103.559	-77.25
4105.989	43.75
4108.418	42.75
4110.845	39.75
4113.27	26.75
4115.694	28.75
4118.115	31.75
4120.535	-69.25
4122.954	-74.25
4125.37	-77.25
4127.785	-73.25
4130.198	-73.25
4132.609	-75.25
4135.019	-75.25
4137.427	-73.25
4139.833	-75.25
4142.237	-78.25