File: Data/Raman/2017-08-29 - Alluminum 2/Aug 29 2017 - Aluminum 2/water 4_RamanShift_3.txt
Data from water 4_RamanShift_3.txt Node

Date: Tue Aug 29 12:31:37 IDT 2017
User: aro
Spectrometer: QEPB0276
Trigger mode: 0
Integration Time (sec): 3.000000E1
Scans to average: 1
Electric dark correction enabled: true
Nonlinearity correction enabled: false
Boxcar width: 0
XAxis mode: Raman Shifts
Number of Pixels in Spectrum: 1044
>>>>>Begin Spectral Data<<<<<
160.701	37.25
166.742	36.25
172.777	72.25
178.805	166.25
184.826	393.25
190.841	790.25
196.849	1257.25
202.85	1597.25
208.845	1751.25
214.833	1746.25
220.815	1742.25
226.789	1753.25
232.758	1768.25
238.719	1797.25
244.674	1821.25
250.623	1820.25
256.565	1856.25
262.5	1859.25
268.429	1863.25
274.351	1896.25
280.267	1922.25
286.176	1938.25
292.079	1980.25
297.975	1992.25
303.865	2032.25
309.748	2018.25
315.625	2056.25
321.495	2059.25
327.359	2101.25
333.217	2127.25
339.068	2136.25
344.912	2165.25
350.751	2186.25
356.583	2207.25
362.408	2239.25
368.227	2301.25
374.04	2410.25
379.847	2593.25
385.647	2718.25
391.44	2595.25
397.228	2454.25
403.009	2470.25
408.784	2732.25
414.553	3303.25
420.315	3984.25
426.071	3993.25
431.821	3321.25
437.565	2701.25
443.302	2529.25
449.033	2428.25
454.758	2365.25
460.477	2306.25
466.189	2277.25
471.896	2211.25
477.596	2191.25
483.29	2177.25
488.978	2149.25
494.66	2120.25
500.335	1996.25
506.005	1820.25
511.668	1641.25
517.325	1437.25
522.977	1289.25
528.622	1190.25
534.261	1111.25
539.894	1053.25
545.521	1008.25
551.141	995.25
556.756	955.25
562.365	931.25
567.968	928.25
573.565	937.25
579.155	929.25
584.74	935.25
590.319	911.25
595.892	906.25
601.459	902.25
607.02	905.25
612.575	911.25
618.124	882.25
623.667	852.25
629.204	861.25
634.735	904.25
640.261	1050.25
645.781	1271.25
651.294	1343.25
656.802	1191.25
662.304	936.25
667.8	817.25
673.29	769.25
678.775	737.25
684.254	719.25
689.726	718.25
695.193	701.25
700.655	701.25
706.11	687.25
711.56	684.25
717.004	678.25
722.442	679.25
727.874	686.25
733.301	706.25
738.722	724.25
744.137	757.25
749.547	808.25
754.951	848.25
760.349	848.25
765.741	797.25
771.128	773.25
776.509	791.25
781.885	823.25
787.254	858.25
792.618	876.25
797.977	863.25
803.33	868.25
808.677	864.25
814.019	824.25
819.355	826.25
824.686	802.25
830.011	797.25
835.33	770.25
840.644	767.25
845.952	743.25
851.255	719.25
856.552	675.25
861.844	660.25
867.13	643.25
872.41	623.25
877.686	619.25
882.955	590.25
888.219	588.25
893.478	576.25
898.731	571.25
903.979	569.25
909.221	560.25
914.458	565.25
919.69	568.25
924.916	567.25
930.136	563.25
935.351	568.25
940.561	558.25
945.766	557.25
950.965	552.25
956.158	557.25
961.347	536.25
966.529	539.25
971.707	539.25
976.879	533.25
982.046	527.25
987.208	528.25
992.364	527.25
997.515	536.25
1002.66	536.25
1007.801	545.25
1012.936	560.25
1018.066	561.25
1023.19	570.25
1028.309	570.25
1033.423	572.25
1038.532	584.25
1043.636	592.25
1048.734	598.25
1053.827	586.25
1058.915	584.25
1063.998	583.25
1069.075	593.25
1074.147	582.25
1079.214	591.25
1084.276	576.25
1089.333	578.25
1094.385	567.25
1099.431	563.25
1104.472	559.25
1109.509	540.25
1114.54	530.25
1119.565	522.25
1124.586	511.25
1129.602	496.25
1134.613	510.25
1139.618	506.25
1144.619	499.25
1149.614	504.25
1154.604	508.25
1159.589	518.25
1164.57	531.25
1169.545	532.25
1174.515	528.25
1179.48	522.25
1184.44	536.25
1189.395	525.25
1194.345	534.25
1199.29	520.25
1204.23	528.25
1209.165	534.25
1214.095	525.25
1219.021	547.25
1223.941	540.25
1228.856	541.25
1233.766	533.25
1238.672	528.25
1243.572	524.25
1248.467	517.25
1253.358	507.25
1258.244	490.25
1263.124	488.25
1268	462.25
1272.871	449.25
1277.737	443.25
1282.599	454.25
1287.455	454.25
1292.306	459.25
1297.153	472.25
1301.995	469.25
1306.832	474.25
1311.664	462.25
1316.491	467.25
1321.314	457.25
1326.132	463.25
1330.945	465.25
1335.753	469.25
1340.556	455.25
1345.354	455.25
1350.148	452.25
1354.937	462.25
1359.722	454.25
1364.501	434.25
1369.276	446.25
1374.046	442.25
1378.811	428.25
1383.572	427.25
1388.327	426.25
1393.079	421.25
1397.825	420.25
1402.567	414.25
1407.304	397.25
1412.036	403.25
1416.764	404.25
1421.487	402.25
1426.205	391.25
1430.919	398.25
1435.628	414.25
1440.333	408.25
1445.032	420.25
1449.727	418.25
1454.418	427.25
1459.104	423.25
1463.785	420.25
1468.462	431.25
1473.134	417.25
1477.802	421.25
1482.465	416.25
1487.123	418.25
1491.777	421.25
1496.426	429.25
1501.071	432.25
1505.711	436.25
1510.347	444.25
1514.978	443.25
1519.604	445.25
1524.226	432.25
1528.844	428.25
1533.457	420.25
1538.065	412.25
1542.669	403.25
1547.269	400.25
1551.864	409.25
1556.454	407.25
1561.041	410.25
1565.622	400.25
1570.199	382.25
1574.772	382.25
1579.34	381.25
1583.904	382.25
1588.464	372.25
1593.019	376.25
1597.569	380.25
1602.115	370.25
1606.657	362.25
1611.195	360.25
1615.728	345.25
1620.256	358.25
1624.78	364.25
1629.3	360.25
1633.816	345.25
1638.327	358.25
1642.834	362.25
1647.336	374.25
1651.834	373.25
1656.328	362.25
1660.817	364.25
1665.302	364.25
1669.783	371.25
1674.259	379.25
1678.732	366.25
1683.199	372.25
1687.663	370.25
1692.122	371.25
1696.577	369.25
1701.028	360.25
1705.474	359.25
1709.917	361.25
1714.355	349.25
1718.788	349.25
1723.218	339.25
1727.643	335.25
1732.064	332.25
1736.481	324.25
1740.893	330.25
1745.301	312.25
1749.705	303.25
1754.105	296.25
1758.501	297.25
1762.893	293.25
1767.28	289.25
1771.663	289.25
1776.042	287.25
1780.417	291.25
1784.787	289.25
1789.154	302.25
1793.516	299.25
1797.874	300.25
1802.228	300.25
1806.578	296.25
1810.924	299.25
1815.266	288.25
1819.603	276.25
1823.937	266.25
1828.266	271.25
1832.591	258.25
1836.913	271.25
1841.23	253.25
1845.543	260.25
1849.852	260.25
1854.156	261.25
1858.457	249.25
1862.754	251.25
1867.047	267.25
1871.335	271.25
1875.62	261.25
1879.9	271.25
1884.177	265.25
1888.449	261.25
1892.718	263.25
1896.982	259.25
1901.243	257.25
1905.499	251.25
1909.752	251.25
1914	259.25
1918.245	268.25
1922.485	262.25
1926.722	260.25
1930.954	265.25
1935.183	269.25
1939.408	269.25
1943.628	271.25
1947.845	266.25
1952.058	252.25
1956.267	255.25
1960.472	255.25
1964.673	236.25
1968.87	225.25
1973.063	227.25
1977.252	212.25
1981.438	224.25
1985.619	217.25
1989.797	206.25
1993.971	215.25
1998.14	210.25
2002.306	207.25
2006.469	213.25
2010.627	213.25
2014.781	208.25
2018.932	203.25
2023.078	198.25
2027.221	194.25
2031.36	200.25
2035.495	206.25
2039.627	190.25
2043.754	203.25
2047.878	196.25
2051.998	185.25
2056.114	202.25
2060.226	203.25
2064.334	203.25
2068.439	200.25
2072.54	197.25
2076.637	199.25
2080.73	201.25
2084.82	202.25
2088.906	206.25
2092.988	212.25
2097.066	212.25
2101.14	191.25
2105.211	197.25
2109.278	185.25
2113.342	190.25
2117.401	188.25
2121.457	180.25
2125.509	180.25
2129.558	180.25
2133.602	179.25
2137.643	174.25
2141.681	165.25
2145.714	168.25
2149.744	165.25
2153.77	169.25
2157.793	161.25
2161.812	166.25
2165.827	152.25
2169.838	149.25
2173.846	151.25
2177.851	154.25
2181.851	144.25
2185.848	149.25
2189.841	146.25
2193.831	137.25
2197.817	139.25
2201.799	141.25
2205.778	143.25
2209.753	131.25
2213.725	144.25
2217.693	136.25
2221.657	141.25
2225.618	140.25
2229.575	144.25
2233.529	143.25
2237.479	139.25
2241.425	138.25
2245.368	139.25
2249.307	128.25
2253.243	132.25
2257.175	125.25
2261.104	128.25
2265.029	125.25
2268.95	114.25
2272.868	118.25
2276.783	117.25
2280.694	108.25
2284.601	110.25
2288.505	119.25
2292.405	110.25
2296.302	109.25
2300.195	101.25
2304.085	110.25
2307.971	101.25
2311.854	105.25
2315.734	98.25
2319.609	105.25
2323.482	102.25
2327.351	113.25
2331.216	136.25
2335.078	132.25
2338.937	115.25
2342.792	95.25
2346.643	92.25
2350.492	90.25
2354.336	93.25
2358.178	85.25
2362.015	93.25
2365.85	93.25
2369.681	94.25
2373.508	88.25
2377.333	91.25
2381.153	88.25
2384.971	88.25
2388.785	91.25
2392.595	95.25
2396.402	92.25
2400.206	82.25
2404.007	82.25
2407.804	83.25
2411.597	91.25
2415.388	82.25
2419.174	85.25
2422.958	78.25
2426.738	85.25
2430.515	76.25
2434.289	81.25
2438.059	79.25
2441.825	74.25
2445.589	70.25
2449.349	71.25
2453.106	73.25
2456.859	72.25
2460.61	73.25
2464.356	69.25
2468.1	74.25
2471.84	71.25
2475.577	70.25
2479.311	72.25
2483.041	76.25
2486.768	116.25
2490.492	114.25
2494.213	72.25
2497.93	65.25
2501.644	67.25
2505.355	61.25
2509.062	61.25
2512.766	62.25
2516.467	67.25
2520.165	60.25
2523.859	60.25
2527.551	65.25
2531.239	58.25
2534.923	57.25
2538.605	62.25
2542.283	55.25
2545.958	59.25
2549.63	63.25
2553.299	53.25
2556.964	58.25
2560.626	55.25
2564.285	54.25
2567.941	54.25
2571.594	55.25
2575.243	52.25
2578.89	55.25
2582.533	53.25
2586.173	56.25
2589.809	49.25
2593.443	50.25
2597.073	46.25
2600.701	47.25
2604.325	48.25
2607.946	46.25
2611.564	44.25
2615.178	42.25
2618.79	40.25
2622.398	44.25
2626.004	34.25
2629.606	37.25
2633.205	41.25
2636.801	40.25
2640.394	39.25
2643.983	40.25
2647.57	33.25
2651.153	32.25
2654.734	33.25
2658.311	28.25
2661.885	22.25
2665.456	35.25
2669.025	23.25
2672.589	25.25
2676.151	19.25
2679.71	17.25
2683.266	24.25
2686.819	21.25
2690.368	20.25
2693.915	18.25
2697.458	17.25
2700.999	12.25
2704.536	18.25
2708.071	15.25
2711.602	22.25
2715.13	12.25
2718.656	21.25
2722.178	12.25
2725.697	8.25
2729.214	14.25
2732.727	19.25
2736.237	18.25
2739.744	15.25
2743.249	18.25
2746.75	8.25
2750.248	10.25
2753.743	14.25
2757.236	19.25
2760.725	11.25
2764.211	0.25
2767.695	18.25
2771.175	15.25
2774.652	11.25
2778.127	14.25
2781.598	13.25
2785.067	10.25
2788.532	11.25
2791.995	7.25
2795.455	12.25
2798.911	11.25
2802.365	3.25
2805.816	9.25
2809.264	4.25
2812.709	13.25
2816.151	7.25
2819.59	13.25
2823.026	7.25
2826.46	4.25
2829.89	-3.75
2833.318	6.25
2836.742	8.25
2840.164	5.25
2843.583	7.25
2846.999	12.25
2850.412	-2.75
2853.822	2.25
2857.229	10.25
2860.634	7.25
2864.035	4.25
2867.434	0.25
2870.83	4.25
2874.223	-0.75
2877.613	-8.75
2881	-7.75
2884.385	-4.75
2887.766	-7.75
2891.145	-5.75
2894.521	-5.75
2897.894	-12.75
2901.264	-10.75
2904.631	-14.75
2907.996	-15.75
2911.358	-12.75
2914.717	-8.75
2918.073	-17.75
2921.426	-16.75
2924.777	-13.75
2928.124	-12.75
2931.469	-16.75
2934.811	-19.75
2938.15	-12.75
2941.487	-18.75
2944.821	-23.75
2948.152	-25.75
2951.48	-22.75
2954.805	-17.75
2958.128	-27.75
2961.447	-25.75
2964.765	-22.75
2968.079	-18.75
2971.39	-22.75
2974.699	-26.75
2978.005	-23.75
2981.308	-24.75
2984.609	-29.75
2987.907	-21.75
2991.202	-27.75
2994.494	-26.75
2997.784	-22.75
3001.07	-25.75
3004.355	-23.75
3007.636	-26.75
3010.915	-27.75
3014.191	-29.75
3017.464	-30.75
3020.734	-23.75
3024.002	-33.75
3027.267	-28.75
3030.53	-33.75
3033.789	-31.75
3037.046	-31.75
3040.301	-42.75
3043.552	-42.75
3046.801	-38.75
3050.048	-37.75
3053.291	-36.75
3056.532	-37.75
3059.771	-30.75
3063.006	-40.75
3066.239	-37.75
3069.469	-32.75
3072.697	-41.75
3075.922	-39.75
3079.144	-34.75
3082.364	-36.75
3085.581	-37.75
3088.795	-42.75
3092.007	-42.75
3095.216	-36.75
3098.423	-43.75
3101.627	-42.75
3104.828	-38.75
3108.026	-38.75
3111.222	-45.75
3114.416	-39.75
3117.607	-39.75
3120.795	-40.75
3123.98	-36.75
3127.163	-39.75
3130.344	-33.75
3133.521	-43.75
3136.696	-39.75
3139.869	-40.75
3143.039	-43.75
3146.206	-42.75
3149.371	-43.75
3152.533	-44.75
3155.693	-48.75
3158.85	-39.75
3162.005	-48.75
3165.157	-46.75
3168.306	-45.75
3171.453	-44.75
3174.597	-47.75
3177.739	-48.75
3180.878	-50.75
3184.014	-54.75
3187.149	-47.75
3190.28	-51.75
3193.409	-50.75
3196.536	-52.75
3199.659	-50.75
3202.781	-53.75
3205.9	-53.75
3209.016	-60.75
3212.13	-59.75
3215.241	-53.75
3218.35	-52.75
3221.456	-54.75
3224.56	-57.75
3227.661	-56.75
3230.76	-61.75
3233.856	-56.75
3236.95	-61.75
3240.041	-57.75
3243.13	-56.75
3246.216	-60.75
3249.3	-62.75
3252.382	-55.75
3255.46	-52.75
3258.537	-23.75
3261.611	-53.75
3264.682	-57.75
3267.751	-55.75
3270.818	-59.75
3273.882	-56.75
3276.943	-58.75
3280.002	-52.75
3283.059	-56.75
3286.113	-60.75
3289.165	-56.75
3292.214	-56.75
3295.261	-56.75
3298.306	-57.75
3301.348	-56.75
3304.387	-55.75
3307.425	-57.75
3310.459	-66.75
3313.492	-63.75
3316.521	-64.75
3319.549	-58.75
3322.574	-61.75
3325.597	-61.75
3328.617	-61.75
3331.635	-59.75
3334.65	-60.75
3337.663	-67.75
3340.674	-54.75
3343.682	-64.75
3346.688	-61.75
3349.691	-60.75
3352.692	-64.75
3355.691	-62.75
3358.687	-61.75
3361.681	-60.75
3364.673	-62.75
3367.662	-62.75
3370.649	-66.75
3373.633	-60.75
3376.615	-62.75
3379.595	-63.75
3382.572	-60.75
3385.547	-59.75
3388.52	-56.75
3391.49	-58.75
3394.458	-71.75
3397.424	-60.75
3400.387	-58.75
3403.348	-59.75
3406.307	-61.75
3409.263	-66.75
3412.217	-61.75
3415.168	-63.75
3418.118	-61.75
3421.065	-62.75
3424.009	-60.75
3426.951	-64.75
3429.891	-65.75
3432.829	-68.75
3435.764	-68.75
3438.697	-61.75
3441.628	-67.75
3444.557	-63.75
3447.483	-70.75
3450.407	-71.75
3453.328	-62.75
3456.247	-67.75
3459.164	-69.75
3462.079	-69.75
3464.991	-69.75
3467.902	-68.75
3470.809	-72.75
3473.715	-71.75
3476.618	-66.75
3479.519	-63.75
3482.418	-69.75
3485.315	-75.75
3488.209	-77.75
3491.101	-69.75
3493.99	-68.75
3496.878	-70.75
3499.763	-76.75
3502.646	-66.75
3505.527	-76.75
3508.405	-68.75
3511.281	-72.75
3514.155	-66.75
3517.027	-70.75
3519.897	-72.75
3522.764	-68.75
3525.629	-70.75
3528.492	-64.75
3531.352	-66.75
3534.211	-69.75
3537.067	-69.75
3539.921	-65.75
3542.773	-71.75
3545.622	-65.75
3548.469	-71.75
3551.315	-66.75
3554.157	-67.75
3556.998	-69.75
3559.837	-66.75
3562.673	-66.75
3565.507	-66.75
3568.339	-65.75
3571.169	-69.75
3573.996	-68.75
3576.822	-66.75
3579.645	-67.75
3582.466	-67.75
3585.285	-66.75
3588.101	-69.75
3590.916	-71.75
3593.728	-69.75
3596.538	-73.75
3599.346	-75.75
3602.152	-75.75
3604.956	-68.75
3607.757	-71.75
3610.556	-67.75
3613.354	-74.75
3616.149	-77.75
3618.942	-69.75
3621.732	-71.75
3624.521	-71.75
3627.307	-72.75
3630.092	-71.75
3632.874	-74.75
3635.654	-68.75
3638.432	-73.75
3641.208	-73.75
3643.982	-69.75
3646.753	-74.75
3649.523	-74.75
3652.29	-74.75
3655.055	-72.75
3657.818	-73.75
3660.579	-68.75
3663.338	-71.75
3666.095	-73.75
3668.849	-71.75
3671.602	-73.75
3674.352	-73.75
3677.101	-72.75
3679.847	-80.75
3682.591	-74.75
3685.333	-76.75
3688.073	-71.75
3690.811	-76.75
3693.547	-72.75
3696.281	-77.75
3699.013	-73.75
3701.742	-79.75
3704.47	-83.75
3707.195	-72.75
3709.919	-71.75
3712.64	-79.75
3715.359	-74.75
3718.076	-72.75
3720.792	-77.75
3723.505	-74.75
3726.216	-84.75
3728.925	-75.75
3731.632	-79.75
3734.336	-78.75
3737.039	-81.75
3739.74	-76.75
3742.439	-75.75
3745.136	-77.75
3747.83	-78.75
3750.523	-74.75
3753.213	-97.75
3755.902	-76.75
3758.589	-77.75
3761.273	-82.75
3763.956	-74.75
3766.636	-72.75
3769.315	-72.75
3771.991	-78.75
3774.665	-72.75
3777.338	-77.75
3780.008	-86.75
3782.677	-76.75
3785.343	-81.75
3788.007	-82.75
3790.67	-74.75
3793.33	-77.75
3795.989	-72.75
3798.645	-80.75
3801.299	-77.75
3803.952	-75.75
3806.602	-80.75
3809.251	-80.75
3811.897	-71.75
3814.542	-79.75
3817.184	-71.75
3819.825	-76.75
3822.463	-76.75
3825.1	-76.75
3827.735	-77.75
3830.367	-79.75
3832.998	-73.75
3835.627	-69.75
3838.253	-78.75
3840.878	-75.75
3843.501	-72.75
3846.122	-75.75
3848.741	-78.75
3851.358	-78.75
3853.973	-72.75
3856.586	-76.75
3859.197	-74.75
3861.806	-75.75
3864.414	-75.75
3867.019	-70.75
3869.622	-68.75
3872.224	-53.75
3874.823	-39.75
3877.421	-19.75
3880.016	16.25
3882.61	49.25
3885.202	58.25
3887.792	33.25
3890.38	-9.75
3892.966	-40.75
3895.55	-56.75
3898.132	-72.75
3900.713	-74.75
3903.291	-74.75
3905.868	-76.75
3908.442	-77.75
3911.015	-70.75
3913.586	-77.75
3916.155	-75.75
3918.722	-72.75
3921.287	-76.75
3923.85	-78.75
3926.411	-72.75
3928.971	-76.75
3931.528	-75.75
3934.084	-80.75
3936.638	-77.75
3939.19	-78.75
3941.74	-73.75
3944.288	-83.75
3946.834	-73.75
3949.378	-78.75
3951.921	-74.75
3954.462	-77.75
3957	-74.75
3959.537	-69.75
3962.072	-68.75
3964.606	-71.75
3967.137	-71.75
3969.667	-75.75
3972.194	-75.75
3974.72	-73.75
3977.244	-74.75
3979.766	-80.75
3982.286	-71.75
3984.805	-79.75
3987.321	-75.75
3989.836	-74.75
3992.349	-72.75
3994.86	-78.75
3997.369	-72.75
3999.877	-71.75
4002.382	-68.75
4004.886	-73.75
4007.388	-71.75
4009.888	-71.75
4012.386	-77.75
4014.883	-78.75
4017.377	-72.75
4019.87	-72.75
4022.361	-80.75
4024.85	-82.75
4027.338	-71.75
4029.823	-74.75
4032.307	-70.75
4034.789	-75.75
4037.269	-76.75
4039.747	-77.75
4042.224	-75.75
4044.699	-75.75
4047.172	-72.75
4049.643	-71.75
4052.112	-73.75
4054.58	-79.75
4057.046	-73.75
4059.51	-74.75
4061.972	-75.75
4064.432	-72.75
4066.891	-78.75
4069.348	-72.75
4071.803	-78.75
4074.256	-69.75
4076.708	-79.75
4079.158	-73.75
4081.606	-76.75
4084.052	-78.75
4086.497	-74.75
4088.939	-81.75
4091.38	-75.75
4093.819	-78.75
4096.257	-74.75
4098.693	-77.75
4101.127	-77.75
4103.559	-77.75
4105.989	51.25
4108.418	51.25
4110.845	40.25
4113.27	34.25
4115.694	36.25
4118.115	37.25
4120.535	-80.75
4122.954	-71.75
4125.37	-76.75
4127.785	-77.75
4130.198	-78.75
4132.609	-77.75
4135.019	-77.75
4137.427	-74.75
4139.833	-77.75
4142.237	-81.75