File: Data/Raman/2017-08-29 - Alluminum 2/Aug 29 2017 - Aluminum 2/water 2_RamanShift_1.txt
Data from water 2_RamanShift_1.txt Node

Date: Tue Aug 29 12:04:37 IDT 2017
User: aro
Spectrometer: QEPB0276
Trigger mode: 0
Integration Time (sec): 3.000000E1
Scans to average: 1
Electric dark correction enabled: true
Nonlinearity correction enabled: false
Boxcar width: 0
XAxis mode: Raman Shifts
Number of Pixels in Spectrum: 1044
>>>>>Begin Spectral Data<<<<<
160.701	36.25
166.742	43.25
172.777	72.25
178.805	186.25
184.826	421.25
190.841	840.25
196.849	1333.25
202.85	1677.25
208.845	1819.25
214.833	1857.25
220.815	1869.25
226.789	1909.25
232.758	1961.25
238.719	2007.25
244.674	2041.25
250.623	2085.25
256.565	2121.25
262.5	2129.25
268.429	2183.25
274.351	2241.25
280.267	2293.25
286.176	2353.25
292.079	2379.25
297.975	2420.25
303.865	2442.25
309.748	2484.25
315.625	2524.25
321.495	2518.25
327.359	2553.25
333.217	2573.25
339.068	2624.25
344.912	2641.25
350.751	2674.25
356.583	2686.25
362.408	2727.25
368.227	2800.25
374.04	2984.25
379.847	3149.25
385.647	3263.25
391.44	3173.25
397.228	2993.25
403.009	3050.25
408.784	3330.25
414.553	3971.25
420.315	4707.25
426.071	4749.25
431.821	3987.25
437.565	3309.25
443.302	3078.25
449.033	2988.25
454.758	2927.25
460.477	2875.25
466.189	2812.25
471.896	2727.25
477.596	2705.25
483.29	2717.25
488.978	2702.25
494.66	2632.25
500.335	2489.25
506.005	2286.25
511.668	2023.25
517.325	1799.25
522.977	1636.25
528.622	1513.25
534.261	1431.25
539.894	1372.25
545.521	1300.25
551.141	1272.25
556.756	1244.25
562.365	1215.25
567.968	1203.25
573.565	1209.25
579.155	1223.25
584.74	1215.25
590.319	1198.25
595.892	1196.25
601.459	1193.25
607.02	1192.25
612.575	1174.25
618.124	1165.25
623.667	1121.25
629.204	1121.25
634.735	1193.25
640.261	1350.25
645.781	1594.25
651.294	1667.25
656.802	1484.25
662.304	1192.25
667.8	1067.25
673.29	997.25
678.775	985.25
684.254	971.25
689.726	948.25
695.193	944.25
700.655	924.25
706.11	922.25
711.56	920.25
717.004	921.25
722.442	938.25
727.874	933.25
733.301	945.25
738.722	964.25
744.137	1001.25
749.547	1069.25
754.951	1109.25
760.349	1078.25
765.741	1040.25
771.128	1032.25
776.509	1044.25
781.885	1076.25
787.254	1127.25
792.618	1137.25
797.977	1146.25
803.33	1128.25
808.677	1119.25
814.019	1096.25
819.355	1090.25
824.686	1067.25
830.011	1047.25
835.33	1026.25
840.644	1024.25
845.952	984.25
851.255	943.25
856.552	910.25
861.844	869.25
867.13	867.25
872.41	840.25
877.686	835.25
882.955	810.25
888.219	806.25
893.478	787.25
898.731	786.25
903.979	799.25
909.221	768.25
914.458	771.25
919.69	770.25
924.916	774.25
930.136	778.25
935.351	773.25
940.561	757.25
945.766	772.25
950.965	772.25
956.158	773.25
961.347	764.25
966.529	755.25
971.707	745.25
976.879	731.25
982.046	725.25
987.208	720.25
992.364	730.25
997.515	732.25
1002.66	727.25
1007.801	755.25
1012.936	760.25
1018.066	761.25
1023.19	769.25
1028.309	780.25
1033.423	790.25
1038.532	787.25
1043.636	807.25
1048.734	799.25
1053.827	807.25
1058.915	800.25
1063.998	798.25
1069.075	797.25
1074.147	788.25
1079.214	810.25
1084.276	792.25
1089.333	778.25
1094.385	779.25
1099.431	774.25
1104.472	759.25
1109.509	755.25
1114.54	729.25
1119.565	720.25
1124.586	702.25
1129.602	697.25
1134.613	697.25
1139.618	695.25
1144.619	695.25
1149.614	700.25
1154.604	709.25
1159.589	725.25
1164.57	730.25
1169.545	730.25
1174.515	732.25
1179.48	721.25
1184.44	725.25
1189.395	724.25
1194.345	724.25
1199.29	719.25
1204.23	716.25
1209.165	728.25
1214.095	722.25
1219.021	733.25
1223.941	733.25
1228.856	739.25
1233.766	718.25
1238.672	725.25
1243.572	716.25
1248.467	706.25
1253.358	684.25
1258.244	679.25
1263.124	660.25
1268	654.25
1272.871	629.25
1277.737	614.25
1282.599	624.25
1287.455	634.25
1292.306	626.25
1297.153	632.25
1301.995	641.25
1306.832	642.25
1311.664	654.25
1316.491	647.25
1321.314	639.25
1326.132	645.25
1330.945	636.25
1335.753	624.25
1340.556	604.25
1345.354	611.25
1350.148	595.25
1354.937	610.25
1359.722	604.25
1364.501	604.25
1369.276	604.25
1374.046	599.25
1378.811	602.25
1383.572	616.25
1388.327	610.25
1393.079	608.25
1397.825	582.25
1402.567	565.25
1407.304	557.25
1412.036	552.25
1416.764	555.25
1421.487	542.25
1426.205	550.25
1430.919	550.25
1435.628	565.25
1440.333	560.25
1445.032	573.25
1449.727	566.25
1454.418	573.25
1459.104	571.25
1463.785	575.25
1468.462	558.25
1473.134	573.25
1477.802	548.25
1482.465	555.25
1487.123	563.25
1491.777	564.25
1496.426	560.25
1501.071	577.25
1505.711	585.25
1510.347	596.25
1514.978	594.25
1519.604	606.25
1524.226	607.25
1528.844	591.25
1533.457	588.25
1538.065	571.25
1542.669	556.25
1547.269	562.25
1551.864	568.25
1556.454	574.25
1561.041	578.25
1565.622	565.25
1570.199	530.25
1574.772	527.25
1579.34	528.25
1583.904	536.25
1588.464	528.25
1593.019	522.25
1597.569	524.25
1602.115	496.25
1606.657	505.25
1611.195	493.25
1615.728	490.25
1620.256	501.25
1624.78	485.25
1629.3	475.25
1633.816	483.25
1638.327	493.25
1642.834	496.25
1647.336	498.25
1651.834	512.25
1656.328	506.25
1660.817	504.25
1665.302	517.25
1669.783	502.25
1674.259	514.25
1678.732	498.25
1683.199	512.25
1687.663	515.25
1692.122	506.25
1696.577	507.25
1701.028	503.25
1705.474	500.25
1709.917	503.25
1714.355	502.25
1718.788	491.25
1723.218	484.25
1727.643	477.25
1732.064	469.25
1736.481	465.25
1740.893	454.25
1745.301	444.25
1749.705	428.25
1754.105	427.25
1758.501	413.25
1762.893	413.25
1767.28	407.25
1771.663	410.25
1776.042	412.25
1780.417	408.25
1784.787	418.25
1789.154	422.25
1793.516	430.25
1797.874	440.25
1802.228	428.25
1806.578	431.25
1810.924	430.25
1815.266	416.25
1819.603	406.25
1823.937	399.25
1828.266	396.25
1832.591	376.25
1836.913	393.25
1841.23	384.25
1845.543	380.25
1849.852	368.25
1854.156	377.25
1858.457	368.25
1862.754	378.25
1867.047	385.25
1871.335	377.25
1875.62	382.25
1879.9	382.25
1884.177	386.25
1888.449	371.25
1892.718	385.25
1896.982	386.25
1901.243	373.25
1905.499	376.25
1909.752	381.25
1914	388.25
1918.245	393.25
1922.485	409.25
1926.722	396.25
1930.954	399.25
1935.183	399.25
1939.408	405.25
1943.628	396.25
1947.845	399.25
1952.058	396.25
1956.267	387.25
1960.472	373.25
1964.673	355.25
1968.87	353.25
1973.063	346.25
1977.252	337.25
1981.438	336.25
1985.619	334.25
1989.797	317.25
1993.971	328.25
1998.14	320.25
2002.306	305.25
2006.469	304.25
2010.627	313.25
2014.781	306.25
2018.932	310.25
2023.078	306.25
2027.221	292.25
2031.36	291.25
2035.495	290.25
2039.627	289.25
2043.754	297.25
2047.878	297.25
2051.998	281.25
2056.114	292.25
2060.226	297.25
2064.334	297.25
2068.439	310.25
2072.54	309.25
2076.637	307.25
2080.73	319.25
2084.82	302.25
2088.906	312.25
2092.988	318.25
2097.066	316.25
2101.14	305.25
2105.211	301.25
2109.278	298.25
2113.342	294.25
2117.401	294.25
2121.457	289.25
2125.509	265.25
2129.558	278.25
2133.602	275.25
2137.643	272.25
2141.681	271.25
2145.714	259.25
2149.744	256.25
2153.77	256.25
2157.793	255.25
2161.812	247.25
2165.827	236.25
2169.838	232.25
2173.846	237.25
2177.851	242.25
2181.851	230.25
2185.848	221.25
2189.841	217.25
2193.831	226.25
2197.817	225.25
2201.799	225.25
2205.778	223.25
2209.753	223.25
2213.725	217.25
2217.693	213.25
2221.657	220.25
2225.618	226.25
2229.575	220.25
2233.529	214.25
2237.479	226.25
2241.425	216.25
2245.368	216.25
2249.307	206.25
2253.243	207.25
2257.175	208.25
2261.104	206.25
2265.029	200.25
2268.95	196.25
2272.868	195.25
2276.783	187.25
2280.694	182.25
2284.601	178.25
2288.505	198.25
2292.405	185.25
2296.302	182.25
2300.195	172.25
2304.085	171.25
2307.971	167.25
2311.854	167.25
2315.734	163.25
2319.609	167.25
2323.482	164.25
2327.351	184.25
2331.216	210.25
2335.078	219.25
2338.937	183.25
2342.792	160.25
2346.643	154.25
2350.492	153.25
2354.336	145.25
2358.178	151.25
2362.015	147.25
2365.85	146.25
2369.681	147.25
2373.508	149.25
2377.333	155.25
2381.153	151.25
2384.971	136.25
2388.785	140.25
2392.595	141.25
2396.402	141.25
2400.206	136.25
2404.007	144.25
2407.804	127.25
2411.597	135.25
2415.388	133.25
2419.174	133.25
2422.958	136.25
2426.738	134.25
2430.515	127.25
2434.289	131.25
2438.059	132.25
2441.825	123.25
2445.589	125.25
2449.349	121.25
2453.106	122.25
2456.859	124.25
2460.61	121.25
2464.356	112.25
2468.1	108.25
2471.84	118.25
2475.577	123.25
2479.311	116.25
2483.041	115.25
2486.768	105.25
2490.492	111.25
2494.213	114.25
2497.93	118.25
2501.644	114.25
2505.355	110.25
2509.062	116.25
2512.766	114.25
2516.467	106.25
2520.165	114.25
2523.859	116.25
2527.551	115.25
2531.239	106.25
2534.923	100.25
2538.605	105.25
2542.283	104.25
2545.958	115.25
2549.63	109.25
2553.299	109.25
2556.964	113.25
2560.626	109.25
2564.285	96.25
2567.941	109.25
2571.594	104.25
2575.243	101.25
2578.89	99.25
2582.533	104.25
2586.173	95.25
2589.809	101.25
2593.443	94.25
2597.073	92.25
2600.701	94.25
2604.325	90.25
2607.946	91.25
2611.564	93.25
2615.178	88.25
2618.79	91.25
2622.398	80.25
2626.004	79.25
2629.606	75.25
2633.205	81.25
2636.801	75.25
2640.394	85.25
2643.983	68.25
2647.57	61.25
2651.153	71.25
2654.734	74.25
2658.311	73.25
2661.885	64.25
2665.456	63.25
2669.025	58.25
2672.589	57.25
2676.151	59.25
2679.71	53.25
2683.266	60.25
2686.819	52.25
2690.368	57.25
2693.915	48.25
2697.458	51.25
2700.999	56.25
2704.536	52.25
2708.071	44.25
2711.602	40.25
2715.13	44.25
2718.656	46.25
2722.178	46.25
2725.697	36.25
2729.214	45.25
2732.727	49.25
2736.237	48.25
2739.744	50.25
2743.249	44.25
2746.75	51.25
2750.248	48.25
2753.743	47.25
2757.236	46.25
2760.725	47.25
2764.211	38.25
2767.695	50.25
2771.175	51.25
2774.652	45.25
2778.127	50.25
2781.598	31.25
2785.067	34.25
2788.532	42.25
2791.995	27.25
2795.455	35.25
2798.911	34.25
2802.365	33.25
2805.816	42.25
2809.264	30.25
2812.709	29.25
2816.151	35.25
2819.59	42.25
2823.026	36.25
2826.46	33.25
2829.89	27.25
2833.318	32.25
2836.742	39.25
2840.164	30.25
2843.583	31.25
2846.999	34.25
2850.412	25.25
2853.822	33.25
2857.229	33.25
2860.634	34.25
2864.035	27.25
2867.434	25.25
2870.83	25.25
2874.223	23.25
2877.613	11.25
2881	15.25
2884.385	20.25
2887.766	15.25
2891.145	15.25
2894.521	15.25
2897.894	11.25
2901.264	8.25
2904.631	5.25
2907.996	6.25
2911.358	8.25
2914.717	4.25
2918.073	11.25
2921.426	3.25
2924.777	4.25
2928.124	-3.75
2931.469	1.25
2934.811	1.25
2938.15	-0.75
2941.487	1.25
2944.821	-5.75
2948.152	-11.75
2951.48	-3.75
2954.805	-2.75
2958.128	-9.75
2961.447	-11.75
2964.765	-6.75
2968.079	-6.75
2971.39	-11.75
2974.699	-5.75
2978.005	-11.75
2981.308	-7.75
2984.609	-17.75
2987.907	-7.75
2991.202	-11.75
2994.494	-4.75
2997.784	-7.75
3001.07	-6.75
3004.355	-14.75
3007.636	-14.75
3010.915	-13.75
3014.191	-16.75
3017.464	-18.75
3020.734	-11.75
3024.002	-25.75
3027.267	-21.75
3030.53	-17.75
3033.789	-19.75
3037.046	-25.75
3040.301	-27.75
3043.552	-26.75
3046.801	-22.75
3050.048	-35.75
3053.291	-27.75
3056.532	-21.75
3059.771	-21.75
3063.006	-30.75
3066.239	-20.75
3069.469	-26.75
3072.697	-29.75
3075.922	-21.75
3079.144	-31.75
3082.364	-28.75
3085.581	-25.75
3088.795	-37.75
3092.007	-31.75
3095.216	-34.75
3098.423	-30.75
3101.627	-25.75
3104.828	-28.75
3108.026	-29.75
3111.222	-31.75
3114.416	-27.75
3117.607	-29.75
3120.795	-32.75
3123.98	-37.75
3127.163	-30.75
3130.344	-31.75
3133.521	-34.75
3136.696	-28.75
3139.869	-31.75
3143.039	-35.75
3146.206	-38.75
3149.371	-38.75
3152.533	-37.75
3155.693	-42.75
3158.85	-33.75
3162.005	-38.75
3165.157	-40.75
3168.306	-34.75
3171.453	-44.75
3174.597	-39.75
3177.739	-42.75
3180.878	-47.75
3184.014	-46.75
3187.149	-48.75
3190.28	-48.75
3193.409	-42.75
3196.536	-50.75
3199.659	-49.75
3202.781	-50.75
3205.9	-44.75
3209.016	-60.75
3212.13	-52.75
3215.241	-53.75
3218.35	-51.75
3221.456	-52.75
3224.56	-50.75
3227.661	-52.75
3230.76	-52.75
3233.856	-59.75
3236.95	-55.75
3240.041	-52.75
3243.13	-57.75
3246.216	-50.75
3249.3	-57.75
3252.382	-48.75
3255.46	-53.75
3258.537	-19.75
3261.611	-48.75
3264.682	-50.75
3267.751	-43.75
3270.818	-56.75
3273.882	-54.75
3276.943	-54.75
3280.002	-47.75
3283.059	-56.75
3286.113	-53.75
3289.165	-52.75
3292.214	-50.75
3295.261	-53.75
3298.306	-55.75
3301.348	-54.75
3304.387	-60.75
3307.425	-61.75
3310.459	-60.75
3313.492	-57.75
3316.521	-67.75
3319.549	-58.75
3322.574	-62.75
3325.597	-67.75
3328.617	-63.75
3331.635	-62.75
3334.65	-68.75
3337.663	-69.75
3340.674	-57.75
3343.682	-65.75
3346.688	-62.75
3349.691	-69.75
3352.692	-67.75
3355.691	-63.75
3358.687	-64.75
3361.681	-62.75
3364.673	-68.75
3367.662	-63.75
3370.649	-67.75
3373.633	-63.75
3376.615	-67.75
3379.595	-61.75
3382.572	-63.75
3385.547	-64.75
3388.52	-61.75
3391.49	-59.75
3394.458	-65.75
3397.424	-58.75
3400.387	-62.75
3403.348	-66.75
3406.307	-64.75
3409.263	-66.75
3412.217	-65.75
3415.168	-61.75
3418.118	-61.75
3421.065	-68.75
3424.009	-66.75
3426.951	-67.75
3429.891	-62.75
3432.829	-66.75
3435.764	-69.75
3438.697	-65.75
3441.628	-61.75
3444.557	-63.75
3447.483	-67.75
3450.407	-72.75
3453.328	-67.75
3456.247	-72.75
3459.164	-67.75
3462.079	-69.75
3464.991	-70.75
3467.902	-74.75
3470.809	-77.75
3473.715	-68.75
3476.618	-73.75
3479.519	-63.75
3482.418	-73.75
3485.315	-74.75
3488.209	-75.75
3491.101	-70.75
3493.99	-74.75
3496.878	-75.75
3499.763	-78.75
3502.646	-70.75
3505.527	-78.75
3508.405	-74.75
3511.281	-76.75
3514.155	-73.75
3517.027	-75.75
3519.897	-68.75
3522.764	-69.75
3525.629	-78.75
3528.492	-68.75
3531.352	-76.75
3534.211	-72.75
3537.067	-71.75
3539.921	-75.75
3542.773	-75.75
3545.622	-75.75
3548.469	-74.75
3551.315	-70.75
3554.157	-70.75
3556.998	-68.75
3559.837	-65.75
3562.673	-72.75
3565.507	-72.75
3568.339	-68.75
3571.169	-73.75
3573.996	-74.75
3576.822	-67.75
3579.645	-75.75
3582.466	-68.75
3585.285	-74.75
3588.101	-77.75
3590.916	-76.75
3593.728	-68.75
3596.538	-81.75
3599.346	-74.75
3602.152	-75.75
3604.956	-76.75
3607.757	-76.75
3610.556	-73.75
3613.354	-74.75
3616.149	-81.75
3618.942	-75.75
3621.732	-78.75
3624.521	-77.75
3627.307	-77.75
3630.092	-76.75
3632.874	-82.75
3635.654	-77.75
3638.432	-79.75
3641.208	-78.75
3643.982	-76.75
3646.753	-82.75
3649.523	-80.75
3652.29	-82.75
3655.055	-80.75
3657.818	-78.75
3660.579	-77.75
3663.338	-81.75
3666.095	-79.75
3668.849	-81.75
3671.602	-77.75
3674.352	-78.75
3677.101	-77.75
3679.847	-79.75
3682.591	-74.75
3685.333	-77.75
3688.073	-81.75
3690.811	-76.75
3693.547	-74.75
3696.281	-76.75
3699.013	-77.75
3701.742	-76.75
3704.47	-82.75
3707.195	-77.75
3709.919	-74.75
3712.64	-76.75
3715.359	-79.75
3718.076	-73.75
3720.792	-77.75
3723.505	-76.75
3726.216	-83.75
3728.925	-77.75
3731.632	-80.75
3734.336	-76.75
3737.039	-80.75
3739.74	-73.75
3742.439	-74.75
3745.136	-82.75
3747.83	-80.75
3750.523	-72.75
3753.213	-103.75
3755.902	-83.75
3758.589	-80.75
3761.273	-86.75
3763.956	-84.75
3766.636	-82.75
3769.315	-83.75
3771.991	-81.75
3774.665	-78.75
3777.338	-80.75
3780.008	-88.75
3782.677	-83.75
3785.343	-81.75
3788.007	-85.75
3790.67	-79.75
3793.33	-84.75
3795.989	-72.75
3798.645	-88.75
3801.299	-78.75
3803.952	-83.75
3806.602	-83.75
3809.251	-84.75
3811.897	-82.75
3814.542	-83.75
3817.184	-79.75
3819.825	-80.75
3822.463	-79.75
3825.1	-84.75
3827.735	-81.75
3830.367	-86.75
3832.998	-78.75
3835.627	-78.75
3838.253	-84.75
3840.878	-78.75
3843.501	-77.75
3846.122	-81.75
3848.741	-76.75
3851.358	-80.75
3853.973	-80.75
3856.586	-82.75
3859.197	-72.75
3861.806	-75.75
3864.414	-73.75
3867.019	-69.75
3869.622	-70.75
3872.224	-55.75
3874.823	-37.75
3877.421	-8.75
3880.016	32.25
3882.61	65.25
3885.202	74.25
3887.792	41.25
3890.38	-9.75
3892.966	-39.75
3895.55	-55.75
3898.132	-75.75
3900.713	-74.75
3903.291	-80.75
3905.868	-75.75
3908.442	-81.75
3911.015	-79.75
3913.586	-81.75
3916.155	-80.75
3918.722	-82.75
3921.287	-82.75
3923.85	-89.75
3926.411	-77.75
3928.971	-87.75
3931.528	-81.75
3934.084	-89.75
3936.638	-86.75
3939.19	-88.75
3941.74	-84.75
3944.288	-86.75
3946.834	-80.75
3949.378	-83.75
3951.921	-85.75
3954.462	-83.75
3957	-82.75
3959.537	-78.75
3962.072	-72.75
3964.606	-83.75
3967.137	-79.75
3969.667	-78.75
3972.194	-85.75
3974.72	-80.75
3977.244	-82.75
3979.766	-83.75
3982.286	-83.75
3984.805	-83.75
3987.321	-76.75
3989.836	-81.75
3992.349	-78.75
3994.86	-80.75
3997.369	-80.75
3999.877	-76.75
4002.382	-73.75
4004.886	-80.75
4007.388	-73.75
4009.888	-76.75
4012.386	-79.75
4014.883	-82.75
4017.377	-73.75
4019.87	-76.75
4022.361	-78.75
4024.85	-79.75
4027.338	-74.75
4029.823	-78.75
4032.307	-79.75
4034.789	-81.75
4037.269	-80.75
4039.747	-76.75
4042.224	-76.75
4044.699	-77.75
4047.172	-72.75
4049.643	-74.75
4052.112	-78.75
4054.58	-82.75
4057.046	-80.75
4059.51	-82.75
4061.972	-80.75
4064.432	-75.75
4066.891	-79.75
4069.348	-76.75
4071.803	-76.75
4074.256	-78.75
4076.708	-84.75
4079.158	-78.75
4081.606	-80.75
4084.052	-85.75
4086.497	-83.75
4088.939	-87.75
4091.38	-82.75
4093.819	-86.75
4096.257	-81.75
4098.693	-83.75
4101.127	-81.75
4103.559	-85.75
4105.989	61.25
4108.418	47.25
4110.845	40.25
4113.27	29.25
4115.694	28.25
4118.115	35.25
4120.535	-81.75
4122.954	-78.75
4125.37	-84.75
4127.785	-86.75
4130.198	-80.75
4132.609	-83.75
4135.019	-84.75
4137.427	-83.75
4139.833	-81.75
4142.237	-87.75