File: Data/Raman/2017-08-29 - Alluminum 2/Aug 29 2017 - Aluminum 2/water 4_RamanShift_1.txt
Data from water 4_RamanShift_1.txt Node

Date: Tue Aug 29 12:30:37 IDT 2017
User: aro
Spectrometer: QEPB0276
Trigger mode: 0
Integration Time (sec): 3.000000E1
Scans to average: 1
Electric dark correction enabled: true
Nonlinearity correction enabled: false
Boxcar width: 0
XAxis mode: Raman Shifts
Number of Pixels in Spectrum: 1044
>>>>>Begin Spectral Data<<<<<
160.701	32.38
166.742	44.38
172.777	69.38
178.805	168.38
184.826	400.38
190.841	797.38
196.849	1284.38
202.85	1621.38
208.845	1761.38
214.833	1763.38
220.815	1749.38
226.789	1759.38
232.758	1797.38
238.719	1817.38
244.674	1845.38
250.623	1830.38
256.565	1852.38
262.5	1860.38
268.429	1879.38
274.351	1926.38
280.267	1935.38
286.176	1962.38
292.079	1980.38
297.975	2020.38
303.865	2041.38
309.748	2077.38
315.625	2082.38
321.495	2095.38
327.359	2105.38
333.217	2112.38
339.068	2163.38
344.912	2167.38
350.751	2192.38
356.583	2225.38
362.408	2276.38
368.227	2307.38
374.04	2455.38
379.847	2637.38
385.647	2722.38
391.44	2612.38
397.228	2471.38
403.009	2503.38
408.784	2763.38
414.553	3319.38
420.315	3990.38
426.071	4011.38
431.821	3329.38
437.565	2735.38
443.302	2553.38
449.033	2438.38
454.758	2401.38
460.477	2325.38
466.189	2282.38
471.896	2241.38
477.596	2219.38
483.29	2198.38
488.978	2170.38
494.66	2147.38
500.335	2019.38
506.005	1843.38
511.668	1635.38
517.325	1458.38
522.977	1304.38
528.622	1191.38
534.261	1136.38
539.894	1055.38
545.521	1017.38
551.141	977.38
556.756	970.38
562.365	940.38
567.968	943.38
573.565	940.38
579.155	950.38
584.74	959.38
590.319	931.38
595.892	904.38
601.459	919.38
607.02	930.38
612.575	911.38
618.124	909.38
623.667	878.38
629.204	871.38
634.735	915.38
640.261	1067.38
645.781	1280.38
651.294	1375.38
656.802	1205.38
662.304	954.38
667.8	826.38
673.29	777.38
678.775	739.38
684.254	730.38
689.726	724.38
695.193	726.38
700.655	705.38
706.11	696.38
711.56	692.38
717.004	687.38
722.442	686.38
727.874	698.38
733.301	713.38
738.722	744.38
744.137	782.38
749.547	827.38
754.951	867.38
760.349	839.38
765.741	794.38
771.128	787.38
776.509	789.38
781.885	815.38
787.254	863.38
792.618	873.38
797.977	875.38
803.33	859.38
808.677	869.38
814.019	869.38
819.355	845.38
824.686	818.38
830.011	814.38
835.33	785.38
840.644	766.38
845.952	749.38
851.255	725.38
856.552	693.38
861.844	665.38
867.13	660.38
872.41	634.38
877.686	609.38
882.955	607.38
888.219	595.38
893.478	581.38
898.731	576.38
903.979	571.38
909.221	564.38
914.458	571.38
919.69	576.38
924.916	574.38
930.136	579.38
935.351	574.38
940.561	559.38
945.766	568.38
950.965	567.38
956.158	570.38
961.347	553.38
966.529	547.38
971.707	540.38
976.879	541.38
982.046	545.38
987.208	533.38
992.364	537.38
997.515	538.38
1002.66	536.38
1007.801	551.38
1012.936	561.38
1018.066	559.38
1023.19	564.38
1028.309	572.38
1033.423	573.38
1038.532	597.38
1043.636	593.38
1048.734	586.38
1053.827	594.38
1058.915	589.38
1063.998	594.38
1069.075	600.38
1074.147	598.38
1079.214	590.38
1084.276	588.38
1089.333	577.38
1094.385	578.38
1099.431	573.38
1104.472	552.38
1109.509	554.38
1114.54	531.38
1119.565	533.38
1124.586	522.38
1129.602	504.38
1134.613	509.38
1139.618	511.38
1144.619	499.38
1149.614	513.38
1154.604	526.38
1159.589	522.38
1164.57	525.38
1169.545	538.38
1174.515	545.38
1179.48	543.38
1184.44	543.38
1189.395	539.38
1194.345	539.38
1199.29	543.38
1204.23	530.38
1209.165	542.38
1214.095	532.38
1219.021	530.38
1223.941	538.38
1228.856	557.38
1233.766	545.38
1238.672	535.38
1243.572	537.38
1248.467	531.38
1253.358	513.38
1258.244	494.38
1263.124	487.38
1268	468.38
1272.871	465.38
1277.737	460.38
1282.599	463.38
1287.455	458.38
1292.306	475.38
1297.153	473.38
1301.995	481.38
1306.832	475.38
1311.664	475.38
1316.491	480.38
1321.314	472.38
1326.132	470.38
1330.945	468.38
1335.753	471.38
1340.556	461.38
1345.354	462.38
1350.148	454.38
1354.937	454.38
1359.722	454.38
1364.501	451.38
1369.276	451.38
1374.046	437.38
1378.811	448.38
1383.572	433.38
1388.327	444.38
1393.079	439.38
1397.825	428.38
1402.567	418.38
1407.304	399.38
1412.036	406.38
1416.764	402.38
1421.487	405.38
1426.205	396.38
1430.919	397.38
1435.628	417.38
1440.333	419.38
1445.032	428.38
1449.727	423.38
1454.418	431.38
1459.104	429.38
1463.785	425.38
1468.462	422.38
1473.134	425.38
1477.802	423.38
1482.465	415.38
1487.123	427.38
1491.777	433.38
1496.426	421.38
1501.071	419.38
1505.711	447.38
1510.347	445.38
1514.978	458.38
1519.604	438.38
1524.226	447.38
1528.844	431.38
1533.457	439.38
1538.065	409.38
1542.669	402.38
1547.269	414.38
1551.864	407.38
1556.454	421.38
1561.041	410.38
1565.622	404.38
1570.199	397.38
1574.772	385.38
1579.34	394.38
1583.904	398.38
1588.464	378.38
1593.019	375.38
1597.569	393.38
1602.115	361.38
1606.657	372.38
1611.195	365.38
1615.728	366.38
1620.256	369.38
1624.78	365.38
1629.3	356.38
1633.816	359.38
1638.327	364.38
1642.834	363.38
1647.336	369.38
1651.834	379.38
1656.328	372.38
1660.817	372.38
1665.302	382.38
1669.783	374.38
1674.259	383.38
1678.732	377.38
1683.199	378.38
1687.663	378.38
1692.122	369.38
1696.577	377.38
1701.028	380.38
1705.474	372.38
1709.917	368.38
1714.355	372.38
1718.788	343.38
1723.218	344.38
1727.643	348.38
1732.064	333.38
1736.481	340.38
1740.893	326.38
1745.301	315.38
1749.705	315.38
1754.105	305.38
1758.501	296.38
1762.893	296.38
1767.28	290.38
1771.663	292.38
1776.042	297.38
1780.417	304.38
1784.787	332.38
1789.154	314.38
1793.516	302.38
1797.874	307.38
1802.228	302.38
1806.578	296.38
1810.924	296.38
1815.266	289.38
1819.603	286.38
1823.937	268.38
1828.266	270.38
1832.591	265.38
1836.913	269.38
1841.23	259.38
1845.543	261.38
1849.852	260.38
1854.156	262.38
1858.457	256.38
1862.754	263.38
1867.047	264.38
1871.335	265.38
1875.62	274.38
1879.9	261.38
1884.177	270.38
1888.449	265.38
1892.718	271.38
1896.982	263.38
1901.243	264.38
1905.499	261.38
1909.752	266.38
1914	258.38
1918.245	270.38
1922.485	279.38
1926.722	273.38
1930.954	272.38
1935.183	272.38
1939.408	265.38
1943.628	276.38
1947.845	274.38
1952.058	264.38
1956.267	255.38
1960.472	255.38
1964.673	242.38
1968.87	229.38
1973.063	236.38
1977.252	226.38
1981.438	232.38
1985.619	231.38
1989.797	209.38
1993.971	212.38
1998.14	213.38
2002.306	213.38
2006.469	215.38
2010.627	212.38
2014.781	209.38
2018.932	214.38
2023.078	205.38
2027.221	207.38
2031.36	212.38
2035.495	202.38
2039.627	191.38
2043.754	201.38
2047.878	194.38
2051.998	196.38
2056.114	195.38
2060.226	200.38
2064.334	196.38
2068.439	206.38
2072.54	210.38
2076.637	197.38
2080.73	206.38
2084.82	202.38
2088.906	203.38
2092.988	209.38
2097.066	205.38
2101.14	194.38
2105.211	201.38
2109.278	189.38
2113.342	198.38
2117.401	187.38
2121.457	174.38
2125.509	181.38
2129.558	181.38
2133.602	176.38
2137.643	171.38
2141.681	174.38
2145.714	172.38
2149.744	165.38
2153.77	164.38
2157.793	163.38
2161.812	164.38
2165.827	157.38
2169.838	157.38
2173.846	158.38
2177.851	153.38
2181.851	140.38
2185.848	147.38
2189.841	145.38
2193.831	141.38
2197.817	143.38
2201.799	146.38
2205.778	141.38
2209.753	132.38
2213.725	138.38
2217.693	142.38
2221.657	138.38
2225.618	155.38
2229.575	140.38
2233.529	144.38
2237.479	142.38
2241.425	137.38
2245.368	136.38
2249.307	135.38
2253.243	130.38
2257.175	135.38
2261.104	134.38
2265.029	124.38
2268.95	118.38
2272.868	127.38
2276.783	115.38
2280.694	121.38
2284.601	110.38
2288.505	115.38
2292.405	109.38
2296.302	110.38
2300.195	111.38
2304.085	102.38
2307.971	109.38
2311.854	106.38
2315.734	101.38
2319.609	102.38
2323.482	103.38
2327.351	110.38
2331.216	132.38
2335.078	134.38
2338.937	120.38
2342.792	94.38
2346.643	88.38
2350.492	93.38
2354.336	93.38
2358.178	85.38
2362.015	90.38
2365.85	89.38
2369.681	88.38
2373.508	92.38
2377.333	96.38
2381.153	92.38
2384.971	92.38
2388.785	88.38
2392.595	90.38
2396.402	87.38
2400.206	79.38
2404.007	86.38
2407.804	84.38
2411.597	82.38
2415.388	90.38
2419.174	88.38
2422.958	78.38
2426.738	78.38
2430.515	82.38
2434.289	80.38
2438.059	73.38
2441.825	72.38
2445.589	80.38
2449.349	73.38
2453.106	74.38
2456.859	76.38
2460.61	68.38
2464.356	65.38
2468.1	66.38
2471.84	71.38
2475.577	70.38
2479.311	63.38
2483.041	69.38
2486.768	69.38
2490.492	57.38
2494.213	66.38
2497.93	56.38
2501.644	61.38
2505.355	57.38
2509.062	63.38
2512.766	63.38
2516.467	62.38
2520.165	60.38
2523.859	56.38
2527.551	61.38
2531.239	60.38
2534.923	60.38
2538.605	56.38
2542.283	52.38
2545.958	59.38
2549.63	60.38
2553.299	62.38
2556.964	55.38
2560.626	55.38
2564.285	55.38
2567.941	54.38
2571.594	53.38
2575.243	53.38
2578.89	48.38
2582.533	58.38
2586.173	53.38
2589.809	51.38
2593.443	48.38
2597.073	43.38
2600.701	51.38
2604.325	46.38
2607.946	48.38
2611.564	48.38
2615.178	45.38
2618.79	38.38
2622.398	33.38
2626.004	35.38
2629.606	37.38
2633.205	44.38
2636.801	39.38
2640.394	38.38
2643.983	30.38
2647.57	35.38
2651.153	32.38
2654.734	32.38
2658.311	32.38
2661.885	27.38
2665.456	35.38
2669.025	28.38
2672.589	24.38
2676.151	25.38
2679.71	23.38
2683.266	30.38
2686.819	24.38
2690.368	25.38
2693.915	24.38
2697.458	20.38
2700.999	22.38
2704.536	18.38
2708.071	14.38
2711.602	13.38
2715.13	14.38
2718.656	17.38
2722.178	16.38
2725.697	10.38
2729.214	12.38
2732.727	21.38
2736.237	20.38
2739.744	18.38
2743.249	20.38
2746.75	15.38
2750.248	16.38
2753.743	11.38
2757.236	14.38
2760.725	15.38
2764.211	9.38
2767.695	20.38
2771.175	20.38
2774.652	14.38
2778.127	10.38
2781.598	12.38
2785.067	7.38
2788.532	15.38
2791.995	7.38
2795.455	10.38
2798.911	8.38
2802.365	7.38
2805.816	9.38
2809.264	-0.62
2812.709	7.38
2816.151	5.38
2819.59	18.38
2823.026	7.38
2826.46	9.38
2829.89	1.38
2833.318	3.38
2836.742	10.38
2840.164	7.38
2843.583	4.38
2846.999	4.38
2850.412	0.38
2853.822	-4.62
2857.229	10.38
2860.634	3.38
2864.035	2.38
2867.434	5.38
2870.83	1.38
2874.223	1.38
2877.613	-8.62
2881	-6.62
2884.385	-6.62
2887.766	-4.62
2891.145	-3.62
2894.521	-12.62
2897.894	-7.62
2901.264	-11.62
2904.631	-14.62
2907.996	-16.62
2911.358	-6.62
2914.717	-7.62
2918.073	-20.62
2921.426	-13.62
2924.777	-14.62
2928.124	-19.62
2931.469	-18.62
2934.811	-18.62
2938.15	-17.62
2941.487	-23.62
2944.821	-22.62
2948.152	-28.62
2951.48	-23.62
2954.805	-19.62
2958.128	-23.62
2961.447	-20.62
2964.765	-26.62
2968.079	-24.62
2971.39	-23.62
2974.699	-21.62
2978.005	-21.62
2981.308	-24.62
2984.609	-30.62
2987.907	-23.62
2991.202	-24.62
2994.494	-21.62
2997.784	-22.62
3001.07	-26.62
3004.355	-24.62
3007.636	-29.62
3010.915	-29.62
3014.191	-34.62
3017.464	-32.62
3020.734	-25.62
3024.002	-35.62
3027.267	-31.62
3030.53	-32.62
3033.789	-26.62
3037.046	-34.62
3040.301	-36.62
3043.552	-39.62
3046.801	-36.62
3050.048	-32.62
3053.291	-35.62
3056.532	-33.62
3059.771	-28.62
3063.006	-44.62
3066.239	-38.62
3069.469	-36.62
3072.697	-45.62
3075.922	-43.62
3079.144	-37.62
3082.364	-38.62
3085.581	-39.62
3088.795	-42.62
3092.007	-49.62
3095.216	-38.62
3098.423	-37.62
3101.627	-35.62
3104.828	-41.62
3108.026	-37.62
3111.222	-42.62
3114.416	-37.62
3117.607	-41.62
3120.795	-34.62
3123.98	-44.62
3127.163	-38.62
3130.344	-44.62
3133.521	-41.62
3136.696	-37.62
3139.869	-40.62
3143.039	-44.62
3146.206	-43.62
3149.371	-42.62
3152.533	-44.62
3155.693	-49.62
3158.85	-41.62
3162.005	-44.62
3165.157	-48.62
3168.306	-44.62
3171.453	-46.62
3174.597	-46.62
3177.739	-51.62
3180.878	-49.62
3184.014	-53.62
3187.149	-54.62
3190.28	-53.62
3193.409	-52.62
3196.536	-56.62
3199.659	-51.62
3202.781	-58.62
3205.9	-54.62
3209.016	-62.62
3212.13	-60.62
3215.241	-55.62
3218.35	-56.62
3221.456	-56.62
3224.56	-56.62
3227.661	-54.62
3230.76	-61.62
3233.856	-62.62
3236.95	-59.62
3240.041	-58.62
3243.13	-60.62
3246.216	-59.62
3249.3	-59.62
3252.382	-54.62
3255.46	-55.62
3258.537	-24.62
3261.611	-62.62
3264.682	-55.62
3267.751	-53.62
3270.818	-56.62
3273.882	-59.62
3276.943	-56.62
3280.002	-57.62
3283.059	-58.62
3286.113	-59.62
3289.165	-62.62
3292.214	-57.62
3295.261	-58.62
3298.306	-62.62
3301.348	-59.62
3304.387	-57.62
3307.425	-61.62
3310.459	-64.62
3313.492	-61.62
3316.521	-66.62
3319.549	-55.62
3322.574	-64.62
3325.597	-70.62
3328.617	-62.62
3331.635	-61.62
3334.65	-63.62
3337.663	-69.62
3340.674	-61.62
3343.682	-63.62
3346.688	-63.62
3349.691	-64.62
3352.692	-63.62
3355.691	-61.62
3358.687	-62.62
3361.681	-59.62
3364.673	-60.62
3367.662	-62.62
3370.649	-63.62
3373.633	-56.62
3376.615	-65.62
3379.595	-63.62
3382.572	-62.62
3385.547	-67.62
3388.52	-57.62
3391.49	-65.62
3394.458	-66.62
3397.424	-58.62
3400.387	-59.62
3403.348	-62.62
3406.307	-65.62
3409.263	-66.62
3412.217	-59.62
3415.168	-64.62
3418.118	-64.62
3421.065	-62.62
3424.009	-64.62
3426.951	-66.62
3429.891	-62.62
3432.829	-67.62
3435.764	-70.62
3438.697	-67.62
3441.628	-66.62
3444.557	-64.62
3447.483	-71.62
3450.407	-72.62
3453.328	-65.62
3456.247	-67.62
3459.164	-63.62
3462.079	-71.62
3464.991	-70.62
3467.902	-68.62
3470.809	-72.62
3473.715	-69.62
3476.618	-74.62
3479.519	-63.62
3482.418	-73.62
3485.315	-69.62
3488.209	-75.62
3491.101	-71.62
3493.99	-71.62
3496.878	-71.62
3499.763	-73.62
3502.646	-69.62
3505.527	-78.62
3508.405	-74.62
3511.281	-73.62
3514.155	-70.62
3517.027	-70.62
3519.897	-68.62
3522.764	-65.62
3525.629	-74.62
3528.492	-67.62
3531.352	-70.62
3534.211	-67.62
3537.067	-69.62
3539.921	-68.62
3542.773	-71.62
3545.622	-63.62
3548.469	-73.62
3551.315	-65.62
3554.157	-63.62
3556.998	-70.62
3559.837	-67.62
3562.673	-67.62
3565.507	-70.62
3568.339	-66.62
3571.169	-70.62
3573.996	-72.62
3576.822	-70.62
3579.645	-68.62
3582.466	-67.62
3585.285	-71.62
3588.101	-74.62
3590.916	-71.62
3593.728	-64.62
3596.538	-74.62
3599.346	-78.62
3602.152	-74.62
3604.956	-71.62
3607.757	-75.62
3610.556	-69.62
3613.354	-68.62
3616.149	-77.62
3618.942	-71.62
3621.732	-72.62
3624.521	-72.62
3627.307	-71.62
3630.092	-68.62
3632.874	-73.62
3635.654	-69.62
3638.432	-73.62
3641.208	-70.62
3643.982	-72.62
3646.753	-75.62
3649.523	-74.62
3652.29	-77.62
3655.055	-75.62
3657.818	-74.62
3660.579	-77.62
3663.338	-73.62
3666.095	-76.62
3668.849	-74.62
3671.602	-72.62
3674.352	-79.62
3677.101	-74.62
3679.847	-83.62
3682.591	-78.62
3685.333	-77.62
3688.073	-79.62
3690.811	-76.62
3693.547	-75.62
3696.281	-74.62
3699.013	-71.62
3701.742	-78.62
3704.47	-82.62
3707.195	-76.62
3709.919	-76.62
3712.64	-80.62
3715.359	-75.62
3718.076	-70.62
3720.792	-80.62
3723.505	-78.62
3726.216	-80.62
3728.925	-74.62
3731.632	-78.62
3734.336	-75.62
3737.039	-82.62
3739.74	-78.62
3742.439	-69.62
3745.136	-80.62
3747.83	-79.62
3750.523	-74.62
3753.213	-93.62
3755.902	-81.62
3758.589	-76.62
3761.273	-83.62
3763.956	-74.62
3766.636	-77.62
3769.315	-80.62
3771.991	-77.62
3774.665	-73.62
3777.338	-81.62
3780.008	-83.62
3782.677	-77.62
3785.343	-79.62
3788.007	-87.62
3790.67	-72.62
3793.33	-82.62
3795.989	-73.62
3798.645	-81.62
3801.299	-77.62
3803.952	-79.62
3806.602	-79.62
3809.251	-82.62
3811.897	-77.62
3814.542	-75.62
3817.184	-73.62
3819.825	-72.62
3822.463	-74.62
3825.1	-75.62
3827.735	-74.62
3830.367	-80.62
3832.998	-71.62
3835.627	-71.62
3838.253	-78.62
3840.878	-73.62
3843.501	-70.62
3846.122	-79.62
3848.741	-79.62
3851.358	-70.62
3853.973	-74.62
3856.586	-77.62
3859.197	-71.62
3861.806	-77.62
3864.414	-69.62
3867.019	-70.62
3869.622	-66.62
3872.224	-56.62
3874.823	-36.62
3877.421	-18.62
3880.016	17.38
3882.61	46.38
3885.202	65.38
3887.792	32.38
3890.38	-5.62
3892.966	-43.62
3895.55	-56.62
3898.132	-74.62
3900.713	-74.62
3903.291	-77.62
3905.868	-75.62
3908.442	-77.62
3911.015	-76.62
3913.586	-75.62
3916.155	-68.62
3918.722	-75.62
3921.287	-78.62
3923.85	-81.62
3926.411	-79.62
3928.971	-76.62
3931.528	-72.62
3934.084	-75.62
3936.638	-78.62
3939.19	-80.62
3941.74	-75.62
3944.288	-81.62
3946.834	-75.62
3949.378	-76.62
3951.921	-75.62
3954.462	-76.62
3957	-76.62
3959.537	-68.62
3962.072	-69.62
3964.606	-76.62
3967.137	-79.62
3969.667	-74.62
3972.194	-78.62
3974.72	-81.62
3977.244	-71.62
3979.766	-78.62
3982.286	-68.62
3984.805	-78.62
3987.321	-79.62
3989.836	-76.62
3992.349	-73.62
3994.86	-73.62
3997.369	-79.62
3999.877	-69.62
4002.382	-74.62
4004.886	-75.62
4007.388	-77.62
4009.888	-75.62
4012.386	-77.62
4014.883	-77.62
4017.377	-75.62
4019.87	-75.62
4022.361	-78.62
4024.85	-79.62
4027.338	-75.62
4029.823	-74.62
4032.307	-75.62
4034.789	-78.62
4037.269	-80.62
4039.747	-79.62
4042.224	-74.62
4044.699	-74.62
4047.172	-73.62
4049.643	-72.62
4052.112	-72.62
4054.58	-77.62
4057.046	-76.62
4059.51	-80.62
4061.972	-73.62
4064.432	-71.62
4066.891	-78.62
4069.348	-73.62
4071.803	-76.62
4074.256	-75.62
4076.708	-74.62
4079.158	-82.62
4081.606	-76.62
4084.052	-78.62
4086.497	-80.62
4088.939	-80.62
4091.38	-79.62
4093.819	-79.62
4096.257	-78.62
4098.693	-77.62
4101.127	-79.62
4103.559	-80.62
4105.989	54.38
4108.418	51.38
4110.845	41.38
4113.27	36.38
4115.694	34.38
4118.115	34.38
4120.535	-77.62
4122.954	-74.62
4125.37	-76.62
4127.785	-80.62
4130.198	-78.62
4132.609	-80.62
4135.019	-78.62
4137.427	-77.62
4139.833	-76.62
4142.237	-81.62