File: Data/Raman/2017-08-29 - Alluminum 2/Aug 29 2017 - Aluminum 2/water 2_RamanShift_3.txt
Data from water 2_RamanShift_3.txt Node

Date: Tue Aug 29 12:05:37 IDT 2017
User: aro
Spectrometer: QEPB0276
Trigger mode: 0
Integration Time (sec): 3.000000E1
Scans to average: 1
Electric dark correction enabled: true
Nonlinearity correction enabled: false
Boxcar width: 0
XAxis mode: Raman Shifts
Number of Pixels in Spectrum: 1044
>>>>>Begin Spectral Data<<<<<
160.701	35.25
166.742	41.25
172.777	77.25
178.805	181.25
184.826	420.25
190.841	824.25
196.849	1314.25
202.85	1675.25
208.845	1823.25
214.833	1821.25
220.815	1850.25
226.789	1889.25
232.758	1948.25
238.719	1989.25
244.674	2029.25
250.623	2059.25
256.565	2085.25
262.5	2138.25
268.429	2156.25
274.351	2214.25
280.267	2258.25
286.176	2302.25
292.079	2355.25
297.975	2389.25
303.865	2432.25
309.748	2477.25
315.625	2521.25
321.495	2538.25
327.359	2543.25
333.217	2569.25
339.068	2624.25
344.912	2624.25
350.751	2670.25
356.583	2690.25
362.408	2735.25
368.227	2802.25
374.04	2950.25
379.847	3150.25
385.647	3254.25
391.44	3145.25
397.228	2983.25
403.009	3034.25
408.784	3287.25
414.553	3964.25
420.315	4690.25
426.071	4690.25
431.821	3939.25
437.565	3263.25
443.302	3080.25
449.033	2959.25
454.758	2912.25
460.477	2856.25
466.189	2779.25
471.896	2704.25
477.596	2693.25
483.29	2650.25
488.978	2653.25
494.66	2611.25
500.335	2479.25
506.005	2242.25
511.668	2006.25
517.325	1789.25
522.977	1608.25
528.622	1491.25
534.261	1413.25
539.894	1336.25
545.521	1287.25
551.141	1260.25
556.756	1227.25
562.365	1187.25
567.968	1184.25
573.565	1186.25
579.155	1204.25
584.74	1184.25
590.319	1171.25
595.892	1144.25
601.459	1166.25
607.02	1174.25
612.575	1159.25
618.124	1139.25
623.667	1110.25
629.204	1108.25
634.735	1160.25
640.261	1318.25
645.781	1561.25
651.294	1646.25
656.802	1452.25
662.304	1170.25
667.8	1046.25
673.29	983.25
678.775	966.25
684.254	936.25
689.726	934.25
695.193	919.25
700.655	916.25
706.11	912.25
711.56	900.25
717.004	902.25
722.442	908.25
727.874	905.25
733.301	916.25
738.722	943.25
744.137	990.25
749.547	1059.25
754.951	1090.25
760.349	1067.25
765.741	1017.25
771.128	1003.25
776.509	1024.25
781.885	1068.25
787.254	1103.25
792.618	1117.25
797.977	1118.25
803.33	1111.25
808.677	1104.25
814.019	1085.25
819.355	1060.25
824.686	1050.25
830.011	1039.25
835.33	1028.25
840.644	987.25
845.952	959.25
851.255	929.25
856.552	900.25
861.844	886.25
867.13	846.25
872.41	839.25
877.686	819.25
882.955	800.25
888.219	790.25
893.478	774.25
898.731	777.25
903.979	770.25
909.221	764.25
914.458	749.25
919.69	757.25
924.916	769.25
930.136	757.25
935.351	765.25
940.561	762.25
945.766	760.25
950.965	752.25
956.158	750.25
961.347	739.25
966.529	746.25
971.707	732.25
976.879	717.25
982.046	710.25
987.208	719.25
992.364	716.25
997.515	716.25
1002.66	717.25
1007.801	729.25
1012.936	753.25
1018.066	735.25
1023.19	759.25
1028.309	771.25
1033.423	781.25
1038.532	782.25
1043.636	791.25
1048.734	793.25
1053.827	794.25
1058.915	792.25
1063.998	789.25
1069.075	792.25
1074.147	786.25
1079.214	787.25
1084.276	777.25
1089.333	773.25
1094.385	768.25
1099.431	770.25
1104.472	761.25
1109.509	743.25
1114.54	725.25
1119.565	698.25
1124.586	690.25
1129.602	675.25
1134.613	677.25
1139.618	678.25
1144.619	676.25
1149.614	693.25
1154.604	699.25
1159.589	709.25
1164.57	716.25
1169.545	720.25
1174.515	713.25
1179.48	730.25
1184.44	714.25
1189.395	706.25
1194.345	715.25
1199.29	707.25
1204.23	724.25
1209.165	715.25
1214.095	711.25
1219.021	725.25
1223.941	718.25
1228.856	728.25
1233.766	725.25
1238.672	712.25
1243.572	726.25
1248.467	702.25
1253.358	690.25
1258.244	674.25
1263.124	661.25
1268	635.25
1272.871	629.25
1277.737	615.25
1282.599	622.25
1287.455	611.25
1292.306	629.25
1297.153	643.25
1301.995	628.25
1306.832	640.25
1311.664	631.25
1316.491	627.25
1321.314	631.25
1326.132	644.25
1330.945	633.25
1335.753	622.25
1340.556	606.25
1345.354	592.25
1350.148	597.25
1354.937	609.25
1359.722	595.25
1364.501	602.25
1369.276	596.25
1374.046	601.25
1378.811	601.25
1383.572	605.25
1388.327	606.25
1393.079	585.25
1397.825	587.25
1402.567	558.25
1407.304	538.25
1412.036	544.25
1416.764	546.25
1421.487	542.25
1426.205	545.25
1430.919	550.25
1435.628	564.25
1440.333	554.25
1445.032	563.25
1449.727	572.25
1454.418	565.25
1459.104	568.25
1463.785	563.25
1468.462	561.25
1473.134	561.25
1477.802	548.25
1482.465	566.25
1487.123	560.25
1491.777	556.25
1496.426	571.25
1501.071	574.25
1505.711	583.25
1510.347	594.25
1514.978	597.25
1519.604	604.25
1524.226	604.25
1528.844	585.25
1533.457	583.25
1538.065	570.25
1542.669	565.25
1547.269	566.25
1551.864	555.25
1556.454	577.25
1561.041	575.25
1565.622	570.25
1570.199	538.25
1574.772	527.25
1579.34	527.25
1583.904	528.25
1588.464	524.25
1593.019	517.25
1597.569	520.25
1602.115	506.25
1606.657	503.25
1611.195	494.25
1615.728	485.25
1620.256	495.25
1624.78	490.25
1629.3	480.25
1633.816	482.25
1638.327	480.25
1642.834	492.25
1647.336	490.25
1651.834	498.25
1656.328	489.25
1660.817	488.25
1665.302	504.25
1669.783	500.25
1674.259	506.25
1678.732	509.25
1683.199	507.25
1687.663	501.25
1692.122	503.25
1696.577	504.25
1701.028	495.25
1705.474	495.25
1709.917	512.25
1714.355	507.25
1718.788	495.25
1723.218	482.25
1727.643	476.25
1732.064	470.25
1736.481	455.25
1740.893	450.25
1745.301	439.25
1749.705	437.25
1754.105	430.25
1758.501	419.25
1762.893	409.25
1767.28	409.25
1771.663	404.25
1776.042	410.25
1780.417	419.25
1784.787	412.25
1789.154	415.25
1793.516	426.25
1797.874	427.25
1802.228	431.25
1806.578	424.25
1810.924	433.25
1815.266	409.25
1819.603	412.25
1823.937	399.25
1828.266	393.25
1832.591	371.25
1836.913	387.25
1841.23	373.25
1845.543	373.25
1849.852	371.25
1854.156	366.25
1858.457	368.25
1862.754	373.25
1867.047	372.25
1871.335	381.25
1875.62	391.25
1879.9	384.25
1884.177	378.25
1888.449	378.25
1892.718	384.25
1896.982	382.25
1901.243	379.25
1905.499	376.25
1909.752	377.25
1914	374.25
1918.245	388.25
1922.485	390.25
1926.722	395.25
1930.954	394.25
1935.183	398.25
1939.408	399.25
1943.628	395.25
1947.845	392.25
1952.058	392.25
1956.267	389.25
1960.472	375.25
1964.673	363.25
1968.87	349.25
1973.063	342.25
1977.252	331.25
1981.438	333.25
1985.619	323.25
1989.797	324.25
1993.971	314.25
1998.14	316.25
2002.306	310.25
2006.469	322.25
2010.627	317.25
2014.781	313.25
2018.932	307.25
2023.078	298.25
2027.221	310.25
2031.36	299.25
2035.495	299.25
2039.627	289.25
2043.754	292.25
2047.878	291.25
2051.998	292.25
2056.114	289.25
2060.226	292.25
2064.334	289.25
2068.439	296.25
2072.54	302.25
2076.637	300.25
2080.73	301.25
2084.82	303.25
2088.906	313.25
2092.988	309.25
2097.066	312.25
2101.14	293.25
2105.211	296.25
2109.278	285.25
2113.342	297.25
2117.401	290.25
2121.457	283.25
2125.509	272.25
2129.558	272.25
2133.602	270.25
2137.643	263.25
2141.681	262.25
2145.714	261.25
2149.744	253.25
2153.77	250.25
2157.793	248.25
2161.812	249.25
2165.827	245.25
2169.838	237.25
2173.846	234.25
2177.851	239.25
2181.851	228.25
2185.848	224.25
2189.841	231.25
2193.831	219.25
2197.817	220.25
2201.799	221.25
2205.778	220.25
2209.753	219.25
2213.725	213.25
2217.693	224.25
2221.657	225.25
2225.618	226.25
2229.575	223.25
2233.529	222.25
2237.479	220.25
2241.425	207.25
2245.368	215.25
2249.307	211.25
2253.243	208.25
2257.175	201.25
2261.104	202.25
2265.029	206.25
2268.95	198.25
2272.868	198.25
2276.783	190.25
2280.694	188.25
2284.601	178.25
2288.505	184.25
2292.405	184.25
2296.302	173.25
2300.195	176.25
2304.085	173.25
2307.971	171.25
2311.854	168.25
2315.734	164.25
2319.609	164.25
2323.482	165.25
2327.351	180.25
2331.216	206.25
2335.078	216.25
2338.937	189.25
2342.792	158.25
2346.643	158.25
2350.492	148.25
2354.336	158.25
2358.178	145.25
2362.015	153.25
2365.85	143.25
2369.681	148.25
2373.508	156.25
2377.333	152.25
2381.153	147.25
2384.971	143.25
2388.785	144.25
2392.595	143.25
2396.402	139.25
2400.206	144.25
2404.007	146.25
2407.804	134.25
2411.597	137.25
2415.388	135.25
2419.174	131.25
2422.958	134.25
2426.738	135.25
2430.515	130.25
2434.289	126.25
2438.059	128.25
2441.825	125.25
2445.589	130.25
2449.349	124.25
2453.106	120.25
2456.859	121.25
2460.61	119.25
2464.356	103.25
2468.1	111.25
2471.84	111.25
2475.577	114.25
2479.311	113.25
2483.041	110.25
2486.768	106.25
2490.492	108.25
2494.213	119.25
2497.93	116.25
2501.644	114.25
2505.355	109.25
2509.062	113.25
2512.766	111.25
2516.467	108.25
2520.165	113.25
2523.859	110.25
2527.551	103.25
2531.239	103.25
2534.923	97.25
2538.605	110.25
2542.283	108.25
2545.958	113.25
2549.63	107.25
2553.299	114.25
2556.964	107.25
2560.626	109.25
2564.285	105.25
2567.941	104.25
2571.594	108.25
2575.243	104.25
2578.89	107.25
2582.533	97.25
2586.173	96.25
2589.809	106.25
2593.443	103.25
2597.073	99.25
2600.701	96.25
2604.325	88.25
2607.946	98.25
2611.564	94.25
2615.178	85.25
2618.79	86.25
2622.398	86.25
2626.004	85.25
2629.606	82.25
2633.205	83.25
2636.801	86.25
2640.394	78.25
2643.983	74.25
2647.57	72.25
2651.153	73.25
2654.734	72.25
2658.311	75.25
2661.885	55.25
2665.456	68.25
2669.025	60.25
2672.589	61.25
2676.151	61.25
2679.71	56.25
2683.266	68.25
2686.819	48.25
2690.368	50.25
2693.915	52.25
2697.458	51.25
2700.999	55.25
2704.536	49.25
2708.071	55.25
2711.602	40.25
2715.13	45.25
2718.656	48.25
2722.178	43.25
2725.697	42.25
2729.214	48.25
2732.727	49.25
2736.237	45.25
2739.744	45.25
2743.249	48.25
2746.75	45.25
2750.248	43.25
2753.743	44.25
2757.236	44.25
2760.725	49.25
2764.211	41.25
2767.695	55.25
2771.175	40.25
2774.652	42.25
2778.127	48.25
2781.598	43.25
2785.067	40.25
2788.532	50.25
2791.995	38.25
2795.455	39.25
2798.911	38.25
2802.365	28.25
2805.816	43.25
2809.264	32.25
2812.709	37.25
2816.151	41.25
2819.59	39.25
2823.026	36.25
2826.46	35.25
2829.89	29.25
2833.318	25.25
2836.742	35.25
2840.164	27.25
2843.583	32.25
2846.999	37.25
2850.412	29.25
2853.822	23.25
2857.229	31.25
2860.634	26.25
2864.035	28.25
2867.434	21.25
2870.83	28.25
2874.223	24.25
2877.613	24.25
2881	19.25
2884.385	18.25
2887.766	15.25
2891.145	18.25
2894.521	8.25
2897.894	7.25
2901.264	7.25
2904.631	6.25
2907.996	2.25
2911.358	7.25
2914.717	2.25
2918.073	1.25
2921.426	-0.75
2924.777	0.25
2928.124	-6.75
2931.469	-1.75
2934.811	2.25
2938.15	-2.75
2941.487	-4.75
2944.821	-7.75
2948.152	-16.75
2951.48	-5.75
2954.805	-3.75
2958.128	-7.75
2961.447	-9.75
2964.765	-16.75
2968.079	-8.75
2971.39	-13.75
2974.699	-7.75
2978.005	-8.75
2981.308	-9.75
2984.609	-12.75
2987.907	-7.75
2991.202	-14.75
2994.494	-3.75
2997.784	-3.75
3001.07	-6.75
3004.355	-6.75
3007.636	-11.75
3010.915	-8.75
3014.191	-11.75
3017.464	-17.75
3020.734	-12.75
3024.002	-15.75
3027.267	-17.75
3030.53	-13.75
3033.789	-15.75
3037.046	-22.75
3040.301	-17.75
3043.552	-31.75
3046.801	-17.75
3050.048	-25.75
3053.291	-21.75
3056.532	-21.75
3059.771	-14.75
3063.006	-31.75
3066.239	-23.75
3069.469	-24.75
3072.697	-33.75
3075.922	-28.75
3079.144	-22.75
3082.364	-29.75
3085.581	-24.75
3088.795	-28.75
3092.007	-34.75
3095.216	-29.75
3098.423	-26.75
3101.627	-26.75
3104.828	-25.75
3108.026	-30.75
3111.222	-29.75
3114.416	-28.75
3117.607	-27.75
3120.795	-29.75
3123.98	-37.75
3127.163	-30.75
3130.344	-30.75
3133.521	-36.75
3136.696	-29.75
3139.869	-30.75
3143.039	-35.75
3146.206	-41.75
3149.371	-38.75
3152.533	-36.75
3155.693	-38.75
3158.85	-37.75
3162.005	-39.75
3165.157	-43.75
3168.306	-39.75
3171.453	-42.75
3174.597	-37.75
3177.739	-41.75
3180.878	-46.75
3184.014	-46.75
3187.149	-47.75
3190.28	-49.75
3193.409	-42.75
3196.536	-52.75
3199.659	-44.75
3202.781	-49.75
3205.9	-51.75
3209.016	-57.75
3212.13	-47.75
3215.241	-49.75
3218.35	-46.75
3221.456	-52.75
3224.56	-46.75
3227.661	-55.75
3230.76	-51.75
3233.856	-53.75
3236.95	-52.75
3240.041	-46.75
3243.13	-53.75
3246.216	-45.75
3249.3	-54.75
3252.382	-49.75
3255.46	-48.75
3258.537	-20.75
3261.611	-51.75
3264.682	-55.75
3267.751	-46.75
3270.818	-52.75
3273.882	-53.75
3276.943	-52.75
3280.002	-51.75
3283.059	-54.75
3286.113	-53.75
3289.165	-53.75
3292.214	-55.75
3295.261	-48.75
3298.306	-50.75
3301.348	-57.75
3304.387	-55.75
3307.425	-56.75
3310.459	-57.75
3313.492	-59.75
3316.521	-64.75
3319.549	-56.75
3322.574	-68.75
3325.597	-60.75
3328.617	-58.75
3331.635	-62.75
3334.65	-61.75
3337.663	-68.75
3340.674	-61.75
3343.682	-65.75
3346.688	-60.75
3349.691	-63.75
3352.692	-61.75
3355.691	-65.75
3358.687	-63.75
3361.681	-67.75
3364.673	-65.75
3367.662	-62.75
3370.649	-65.75
3373.633	-68.75
3376.615	-68.75
3379.595	-70.75
3382.572	-59.75
3385.547	-64.75
3388.52	-63.75
3391.49	-66.75
3394.458	-63.75
3397.424	-56.75
3400.387	-61.75
3403.348	-62.75
3406.307	-60.75
3409.263	-66.75
3412.217	-63.75
3415.168	-62.75
3418.118	-63.75
3421.065	-63.75
3424.009	-64.75
3426.951	-64.75
3429.891	-58.75
3432.829	-64.75
3435.764	-61.75
3438.697	-67.75
3441.628	-65.75
3444.557	-62.75
3447.483	-69.75
3450.407	-72.75
3453.328	-62.75
3456.247	-65.75
3459.164	-63.75
3462.079	-69.75
3464.991	-71.75
3467.902	-74.75
3470.809	-75.75
3473.715	-70.75
3476.618	-75.75
3479.519	-67.75
3482.418	-71.75
3485.315	-72.75
3488.209	-78.75
3491.101	-71.75
3493.99	-69.75
3496.878	-68.75
3499.763	-76.75
3502.646	-66.75
3505.527	-77.75
3508.405	-74.75
3511.281	-73.75
3514.155	-69.75
3517.027	-73.75
3519.897	-74.75
3522.764	-63.75
3525.629	-72.75
3528.492	-70.75
3531.352	-71.75
3534.211	-66.75
3537.067	-72.75
3539.921	-68.75
3542.773	-75.75
3545.622	-73.75
3548.469	-71.75
3551.315	-68.75
3554.157	-68.75
3556.998	-71.75
3559.837	-62.75
3562.673	-69.75
3565.507	-67.75
3568.339	-72.75
3571.169	-76.75
3573.996	-73.75
3576.822	-69.75
3579.645	-75.75
3582.466	-68.75
3585.285	-72.75
3588.101	-78.75
3590.916	-75.75
3593.728	-69.75
3596.538	-78.75
3599.346	-79.75
3602.152	-75.75
3604.956	-71.75
3607.757	-80.75
3610.556	-72.75
3613.354	-77.75
3616.149	-83.75
3618.942	-71.75
3621.732	-76.75
3624.521	-78.75
3627.307	-78.75
3630.092	-74.75
3632.874	-80.75
3635.654	-77.75
3638.432	-74.75
3641.208	-81.75
3643.982	-75.75
3646.753	-82.75
3649.523	-78.75
3652.29	-79.75
3655.055	-80.75
3657.818	-81.75
3660.579	-75.75
3663.338	-79.75
3666.095	-81.75
3668.849	-81.75
3671.602	-81.75
3674.352	-79.75
3677.101	-76.75
3679.847	-81.75
3682.591	-78.75
3685.333	-75.75
3688.073	-80.75
3690.811	-75.75
3693.547	-76.75
3696.281	-77.75
3699.013	-79.75
3701.742	-79.75
3704.47	-80.75
3707.195	-76.75
3709.919	-78.75
3712.64	-86.75
3715.359	-75.75
3718.076	-70.75
3720.792	-76.75
3723.505	-79.75
3726.216	-83.75
3728.925	-75.75
3731.632	-76.75
3734.336	-79.75
3737.039	-77.75
3739.74	-81.75
3742.439	-72.75
3745.136	-78.75
3747.83	-81.75
3750.523	-77.75
3753.213	-104.75
3755.902	-82.75
3758.589	-81.75
3761.273	-87.75
3763.956	-80.75
3766.636	-78.75
3769.315	-82.75
3771.991	-83.75
3774.665	-76.75
3777.338	-79.75
3780.008	-92.75
3782.677	-83.75
3785.343	-84.75
3788.007	-85.75
3790.67	-79.75
3793.33	-83.75
3795.989	-76.75
3798.645	-86.75
3801.299	-83.75
3803.952	-83.75
3806.602	-87.75
3809.251	-82.75
3811.897	-78.75
3814.542	-82.75
3817.184	-81.75
3819.825	-81.75
3822.463	-76.75
3825.1	-83.75
3827.735	-79.75
3830.367	-85.75
3832.998	-79.75
3835.627	-76.75
3838.253	-72.75
3840.878	-82.75
3843.501	-75.75
3846.122	-78.75
3848.741	-79.75
3851.358	-74.75
3853.973	-73.75
3856.586	-85.75
3859.197	-69.75
3861.806	-79.75
3864.414	-79.75
3867.019	-71.75
3869.622	-67.75
3872.224	-55.75
3874.823	-36.75
3877.421	-12.75
3880.016	27.25
3882.61	67.25
3885.202	81.25
3887.792	41.25
3890.38	3.25
3892.966	-41.75
3895.55	-58.75
3898.132	-73.75
3900.713	-73.75
3903.291	-83.75
3905.868	-78.75
3908.442	-85.75
3911.015	-79.75
3913.586	-80.75
3916.155	-83.75
3918.722	-84.75
3921.287	-81.75
3923.85	-89.75
3926.411	-79.75
3928.971	-85.75
3931.528	-77.75
3934.084	-81.75
3936.638	-85.75
3939.19	-85.75
3941.74	-79.75
3944.288	-86.75
3946.834	-81.75
3949.378	-81.75
3951.921	-82.75
3954.462	-81.75
3957	-73.75
3959.537	-76.75
3962.072	-74.75
3964.606	-77.75
3967.137	-79.75
3969.667	-81.75
3972.194	-82.75
3974.72	-83.75
3977.244	-79.75
3979.766	-82.75
3982.286	-77.75
3984.805	-79.75
3987.321	-76.75
3989.836	-83.75
3992.349	-77.75
3994.86	-78.75
3997.369	-78.75
3999.877	-78.75
4002.382	-77.75
4004.886	-77.75
4007.388	-70.75
4009.888	-81.75
4012.386	-76.75
4014.883	-79.75
4017.377	-72.75
4019.87	-77.75
4022.361	-76.75
4024.85	-82.75
4027.338	-75.75
4029.823	-75.75
4032.307	-75.75
4034.789	-75.75
4037.269	-76.75
4039.747	-77.75
4042.224	-79.75
4044.699	-80.75
4047.172	-77.75
4049.643	-75.75
4052.112	-74.75
4054.58	-79.75
4057.046	-79.75
4059.51	-86.75
4061.972	-81.75
4064.432	-77.75
4066.891	-84.75
4069.348	-74.75
4071.803	-77.75
4074.256	-76.75
4076.708	-85.75
4079.158	-81.75
4081.606	-79.75
4084.052	-85.75
4086.497	-82.75
4088.939	-85.75
4091.38	-82.75
4093.819	-78.75
4096.257	-82.75
4098.693	-87.75
4101.127	-83.75
4103.559	-86.75
4105.989	49.25
4108.418	44.25
4110.845	43.25
4113.27	24.25
4115.694	36.25
4118.115	25.25
4120.535	-77.75
4122.954	-81.75
4125.37	-81.75
4127.785	-84.75
4130.198	-82.75
4132.609	-84.75
4135.019	-82.75
4137.427	-83.75
4139.833	-80.75
4142.237	-87.75