File: Data/Raman/2017-08-29 - Alluminum 2/Aug 29 2017 - Aluminum 2/water 1_RamanShift_1.txt
Data from water 1_RamanShift_1.txt Node

Date: Tue Aug 29 12:02:37 IDT 2017
User: aro
Spectrometer: QEPB0276
Trigger mode: 0
Integration Time (sec): 3.000000E1
Scans to average: 1
Electric dark correction enabled: true
Nonlinearity correction enabled: false
Boxcar width: 0
XAxis mode: Raman Shifts
Number of Pixels in Spectrum: 1044
>>>>>Begin Spectral Data<<<<<
160.701	57.75
166.742	66.75
172.777	107.75
178.805	257.75
184.826	599.75
190.841	1202.75
196.849	1896.75
202.85	2430.75
208.845	2593.75
214.833	2638.75
220.815	2632.75
226.789	2722.75
232.758	2759.75
238.719	2810.75
244.674	2859.75
250.623	2894.75
256.565	2932.75
262.5	2971.75
268.429	3001.75
274.351	3048.75
280.267	3103.75
286.176	3136.75
292.079	3185.75
297.975	3226.75
303.865	3296.75
309.748	3360.75
315.625	3382.75
321.495	3415.75
327.359	3456.75
333.217	3481.75
339.068	3524.75
344.912	3571.75
350.751	3595.75
356.583	3638.75
362.408	3710.75
368.227	3802.75
374.04	4021.75
379.847	4365.75
385.647	4522.75
391.44	4366.75
397.228	4095.75
403.009	4147.75
408.784	4638.75
414.553	5643.75
420.315	6893.75
426.071	6945.75
431.821	5654.75
437.565	4556.75
443.302	4228.75
449.033	4062.75
454.758	3937.75
460.477	3873.75
466.189	3755.75
471.896	3660.75
477.596	3596.75
483.29	3595.75
488.978	3568.75
494.66	3510.75
500.335	3310.75
506.005	2972.75
511.668	2606.75
517.325	2258.75
522.977	2011.75
528.622	1826.75
534.261	1693.75
539.894	1583.75
545.521	1518.75
551.141	1458.75
556.756	1421.75
562.365	1392.75
567.968	1356.75
573.565	1377.75
579.155	1389.75
584.74	1387.75
590.319	1344.75
595.892	1333.75
601.459	1334.75
607.02	1341.75
612.575	1339.75
618.124	1308.75
623.667	1259.75
629.204	1252.75
634.735	1342.75
640.261	1617.75
645.781	2016.75
651.294	2180.75
656.802	1865.75
662.304	1413.75
667.8	1173.75
673.29	1084.75
678.775	1053.75
684.254	1013.75
689.726	1002.75
695.193	977.75
700.655	953.75
706.11	960.75
711.56	944.75
717.004	953.75
722.442	952.75
727.874	957.75
733.301	979.75
738.722	1011.75
744.137	1091.75
749.547	1194.75
754.951	1250.75
760.349	1230.75
765.741	1134.75
771.128	1096.75
776.509	1129.75
781.885	1184.75
787.254	1230.75
792.618	1253.75
797.977	1275.75
803.33	1265.75
808.677	1253.75
814.019	1209.75
819.355	1197.75
824.686	1166.75
830.011	1142.75
835.33	1096.75
840.644	1079.75
845.952	1032.75
851.255	981.75
856.552	934.75
861.844	883.75
867.13	847.75
872.41	837.75
877.686	816.75
882.955	775.75
888.219	775.75
893.478	753.75
898.731	751.75
903.979	750.75
909.221	726.75
914.458	730.75
919.69	726.75
924.916	725.75
930.136	724.75
935.351	724.75
940.561	718.75
945.766	715.75
950.965	729.75
956.158	719.75
961.347	709.75
966.529	696.75
971.707	697.75
976.879	690.75
982.046	673.75
987.208	687.75
992.364	673.75
997.515	677.75
1002.66	687.75
1007.801	698.75
1012.936	700.75
1018.066	712.75
1023.19	714.75
1028.309	737.75
1033.423	746.75
1038.532	771.75
1043.636	783.75
1048.734	790.75
1053.827	788.75
1058.915	788.75
1063.998	793.75
1069.075	783.75
1074.147	775.75
1079.214	770.75
1084.276	777.75
1089.333	764.75
1094.385	749.75
1099.431	736.75
1104.472	712.75
1109.509	704.75
1114.54	676.75
1119.565	653.75
1124.586	649.75
1129.602	631.75
1134.613	643.75
1139.618	637.75
1144.619	648.75
1149.614	659.75
1154.604	646.75
1159.589	675.75
1164.57	674.75
1169.545	691.75
1174.515	687.75
1179.48	679.75
1184.44	675.75
1189.395	681.75
1194.345	689.75
1199.29	676.75
1204.23	683.75
1209.165	690.75
1214.095	674.75
1219.021	686.75
1223.941	684.75
1228.856	685.75
1233.766	680.75
1238.672	668.75
1243.572	656.75
1248.467	651.75
1253.358	633.75
1258.244	612.75
1263.124	592.75
1268	583.75
1272.871	562.75
1277.737	549.75
1282.599	559.75
1287.455	543.75
1292.306	560.75
1297.153	561.75
1301.995	558.75
1306.832	564.75
1311.664	566.75
1316.491	561.75
1321.314	564.75
1326.132	557.75
1330.945	556.75
1335.753	553.75
1340.556	548.75
1345.354	541.75
1350.148	540.75
1354.937	540.75
1359.722	535.75
1364.501	532.75
1369.276	535.75
1374.046	523.75
1378.811	513.75
1383.572	515.75
1388.327	524.75
1393.079	508.75
1397.825	507.75
1402.567	491.75
1407.304	479.75
1412.036	469.75
1416.764	467.75
1421.487	466.75
1426.205	458.75
1430.919	472.75
1435.628	484.75
1440.333	486.75
1445.032	487.75
1449.727	495.75
1454.418	488.75
1459.104	495.75
1463.785	481.75
1468.462	500.75
1473.134	484.75
1477.802	490.75
1482.465	486.75
1487.123	503.75
1491.777	508.75
1496.426	497.75
1501.071	518.75
1505.711	525.75
1510.347	549.75
1514.978	539.75
1519.604	549.75
1524.226	536.75
1528.844	524.75
1533.457	509.75
1538.065	500.75
1542.669	489.75
1547.269	477.75
1551.864	480.75
1556.454	493.75
1561.041	488.75
1565.622	468.75
1570.199	450.75
1574.772	458.75
1579.34	456.75
1583.904	457.75
1588.464	451.75
1593.019	449.75
1597.569	448.75
1602.115	438.75
1606.657	431.75
1611.195	421.75
1615.728	417.75
1620.256	419.75
1624.78	422.75
1629.3	414.75
1633.816	428.75
1638.327	431.75
1642.834	436.75
1647.336	435.75
1651.834	436.75
1656.328	436.75
1660.817	434.75
1665.302	435.75
1669.783	441.75
1674.259	444.75
1678.732	440.75
1683.199	441.75
1687.663	449.75
1692.122	440.75
1696.577	439.75
1701.028	439.75
1705.474	427.75
1709.917	445.75
1714.355	416.75
1718.788	411.75
1723.218	411.75
1727.643	398.75
1732.064	393.75
1736.481	385.75
1740.893	372.75
1745.301	362.75
1749.705	352.75
1754.105	352.75
1758.501	342.75
1762.893	337.75
1767.28	337.75
1771.663	339.75
1776.042	340.75
1780.417	338.75
1784.787	340.75
1789.154	351.75
1793.516	363.75
1797.874	348.75
1802.228	346.75
1806.578	340.75
1810.924	348.75
1815.266	335.75
1819.603	320.75
1823.937	314.75
1828.266	311.75
1832.591	301.75
1836.913	298.75
1841.23	300.75
1845.543	298.75
1849.852	291.75
1854.156	288.75
1858.457	279.75
1862.754	295.75
1867.047	290.75
1871.335	297.75
1875.62	295.75
1879.9	299.75
1884.177	307.75
1888.449	289.75
1892.718	294.75
1896.982	293.75
1901.243	291.75
1905.499	296.75
1909.752	302.75
1914	295.75
1918.245	308.75
1922.485	306.75
1926.722	309.75
1930.954	309.75
1935.183	300.75
1939.408	310.75
1943.628	307.75
1947.845	302.75
1952.058	305.75
1956.267	295.75
1960.472	278.75
1964.673	279.75
1968.87	264.75
1973.063	267.75
1977.252	257.75
1981.438	250.75
1985.619	248.75
1989.797	240.75
1993.971	237.75
1998.14	242.75
2002.306	229.75
2006.469	236.75
2010.627	242.75
2014.781	228.75
2018.932	236.75
2023.078	232.75
2027.221	232.75
2031.36	224.75
2035.495	218.75
2039.627	217.75
2043.754	213.75
2047.878	214.75
2051.998	212.75
2056.114	213.75
2060.226	224.75
2064.334	226.75
2068.439	225.75
2072.54	221.75
2076.637	222.75
2080.73	229.75
2084.82	222.75
2088.906	228.75
2092.988	235.75
2097.066	226.75
2101.14	217.75
2105.211	218.75
2109.278	216.75
2113.342	209.75
2117.401	212.75
2121.457	202.75
2125.509	207.75
2129.558	202.75
2133.602	190.75
2137.643	186.75
2141.681	178.75
2145.714	191.75
2149.744	176.75
2153.77	171.75
2157.793	179.75
2161.812	175.75
2165.827	176.75
2169.838	164.75
2173.846	175.75
2177.851	163.75
2181.851	159.75
2185.848	160.75
2189.841	147.75
2193.831	158.75
2197.817	151.75
2201.799	148.75
2205.778	145.75
2209.753	136.75
2213.725	150.75
2217.693	148.75
2221.657	155.75
2225.618	149.75
2229.575	143.75
2233.529	149.75
2237.479	147.75
2241.425	145.75
2245.368	136.75
2249.307	138.75
2253.243	140.75
2257.175	123.75
2261.104	132.75
2265.029	125.75
2268.95	122.75
2272.868	124.75
2276.783	115.75
2280.694	122.75
2284.601	118.75
2288.505	121.75
2292.405	113.75
2296.302	110.75
2300.195	106.75
2304.085	108.75
2307.971	104.75
2311.854	99.75
2315.734	100.75
2319.609	97.75
2323.482	101.75
2327.351	107.75
2331.216	124.75
2335.078	122.75
2338.937	111.75
2342.792	93.75
2346.643	89.75
2350.492	85.75
2354.336	81.75
2358.178	87.75
2362.015	81.75
2365.85	83.75
2369.681	86.75
2373.508	86.75
2377.333	79.75
2381.153	84.75
2384.971	82.75
2388.785	74.75
2392.595	77.75
2396.402	75.75
2400.206	76.75
2404.007	72.75
2407.804	67.75
2411.597	73.75
2415.388	73.75
2419.174	67.75
2422.958	62.75
2426.738	60.75
2430.515	67.75
2434.289	70.75
2438.059	61.75
2441.825	64.75
2445.589	62.75
2449.349	58.75
2453.106	56.75
2456.859	60.75
2460.61	59.75
2464.356	49.75
2468.1	51.75
2471.84	52.75
2475.577	52.75
2479.311	52.75
2483.041	50.75
2486.768	44.75
2490.492	43.75
2494.213	55.75
2497.93	54.75
2501.644	48.75
2505.355	49.75
2509.062	49.75
2512.766	45.75
2516.467	44.75
2520.165	41.75
2523.859	45.75
2527.551	40.75
2531.239	36.75
2534.923	40.75
2538.605	45.75
2542.283	39.75
2545.958	40.75
2549.63	41.75
2553.299	40.75
2556.964	39.75
2560.626	41.75
2564.285	35.75
2567.941	40.75
2571.594	36.75
2575.243	27.75
2578.89	29.75
2582.533	31.75
2586.173	29.75
2589.809	32.75
2593.443	23.75
2597.073	39.75
2600.701	31.75
2604.325	28.75
2607.946	26.75
2611.564	24.75
2615.178	20.75
2618.79	22.75
2622.398	19.75
2626.004	13.75
2629.606	17.75
2633.205	23.75
2636.801	18.75
2640.394	16.75
2643.983	14.75
2647.57	9.75
2651.153	11.75
2654.734	15.75
2658.311	13.75
2661.885	0.75
2665.456	3.75
2669.025	2.75
2672.589	4.75
2676.151	8.75
2679.71	-1.25
2683.266	0.75
2686.819	-1.25
2690.368	1.75
2693.915	-0.25
2697.458	-2.25
2700.999	-5.25
2704.536	-7.25
2708.071	-5.25
2711.602	-3.25
2715.13	-9.25
2718.656	-17.25
2722.178	-12.25
2725.697	-15.25
2729.214	-3.25
2732.727	-8.25
2736.237	-8.25
2739.744	-7.25
2743.249	-7.25
2746.75	-9.25
2750.248	-8.25
2753.743	-8.25
2757.236	-8.25
2760.725	-12.25
2764.211	-15.25
2767.695	-9.25
2771.175	-11.25
2774.652	-13.25
2778.127	-9.25
2781.598	-17.25
2785.067	-17.25
2788.532	-14.25
2791.995	-31.25
2795.455	-15.25
2798.911	-18.25
2802.365	-22.25
2805.816	-17.25
2809.264	-25.25
2812.709	-23.25
2816.151	-21.25
2819.59	-12.25
2823.026	-24.25
2826.46	-27.25
2829.89	-23.25
2833.318	-22.25
2836.742	-20.25
2840.164	-27.25
2843.583	-24.25
2846.999	-19.25
2850.412	-27.25
2853.822	-19.25
2857.229	-23.25
2860.634	-21.25
2864.035	-24.25
2867.434	-24.25
2870.83	-26.25
2874.223	-25.25
2877.613	-27.25
2881	-34.25
2884.385	-31.25
2887.766	-36.25
2891.145	-35.25
2894.521	-34.25
2897.894	-37.25
2901.264	-37.25
2904.631	-44.25
2907.996	-47.25
2911.358	-42.25
2914.717	-48.25
2918.073	-54.25
2921.426	-47.25
2924.777	-50.25
2928.124	-53.25
2931.469	-48.25
2934.811	-42.25
2938.15	-51.25
2941.487	-39.25
2944.821	-46.25
2948.152	-57.25
2951.48	-51.25
2954.805	-48.25
2958.128	-57.25
2961.447	-42.25
2964.765	-54.25
2968.079	-53.25
2971.39	-53.25
2974.699	-58.25
2978.005	-53.25
2981.308	-55.25
2984.609	-56.25
2987.907	-48.25
2991.202	-59.25
2994.494	-53.25
2997.784	-58.25
3001.07	-54.25
3004.355	-57.25
3007.636	-57.25
3010.915	-63.25
3014.191	-60.25
3017.464	-58.25
3020.734	-61.25
3024.002	-67.25
3027.267	-65.25
3030.53	-68.25
3033.789	-63.25
3037.046	-72.25
3040.301	-67.25
3043.552	-73.25
3046.801	-66.25
3050.048	-66.25
3053.291	-67.25
3056.532	-65.25
3059.771	-70.25
3063.006	-76.25
3066.239	-74.25
3069.469	-72.25
3072.697	-76.25
3075.922	-75.25
3079.144	-73.25
3082.364	-75.25
3085.581	-75.25
3088.795	-70.25
3092.007	-80.25
3095.216	-68.25
3098.423	-75.25
3101.627	-71.25
3104.828	-72.25
3108.026	-70.25
3111.222	-80.25
3114.416	-71.25
3117.607	-71.25
3120.795	-76.25
3123.98	-76.25
3127.163	-74.25
3130.344	-74.25
3133.521	-82.25
3136.696	-75.25
3139.869	-77.25
3143.039	-82.25
3146.206	-76.25
3149.371	-80.25
3152.533	-81.25
3155.693	-81.25
3158.85	-83.25
3162.005	-87.25
3165.157	-82.25
3168.306	-80.25
3171.453	-85.25
3174.597	-83.25
3177.739	-81.25
3180.878	-89.25
3184.014	-92.25
3187.149	-86.25
3190.28	-89.25
3193.409	-83.25
3196.536	-97.25
3199.659	-91.25
3202.781	-89.25
3205.9	-89.25
3209.016	-101.25
3212.13	-93.25
3215.241	-94.25
3218.35	-90.25
3221.456	-93.25
3224.56	-97.25
3227.661	-95.25
3230.76	-91.25
3233.856	-98.25
3236.95	-92.25
3240.041	-87.25
3243.13	-94.25
3246.216	-93.25
3249.3	-91.25
3252.382	-90.25
3255.46	-90.25
3258.537	-65.25
3261.611	-85.25
3264.682	-89.25
3267.751	-84.25
3270.818	-96.25
3273.882	-98.25
3276.943	-94.25
3280.002	-91.25
3283.059	-97.25
3286.113	-92.25
3289.165	-90.25
3292.214	-93.25
3295.261	-89.25
3298.306	-98.25
3301.348	-92.25
3304.387	-98.25
3307.425	-93.25
3310.459	-98.25
3313.492	-99.25
3316.521	-96.25
3319.549	-99.25
3322.574	-102.25
3325.597	-98.25
3328.617	-101.25
3331.635	-101.25
3334.65	-98.25
3337.663	-107.25
3340.674	-100.25
3343.682	-104.25
3346.688	-107.25
3349.691	-105.25
3352.692	-101.25
3355.691	-107.25
3358.687	-103.25
3361.681	-105.25
3364.673	-107.25
3367.662	-97.25
3370.649	-104.25
3373.633	-101.25
3376.615	-99.25
3379.595	-102.25
3382.572	-101.25
3385.547	-98.25
3388.52	-101.25
3391.49	-101.25
3394.458	-103.25
3397.424	-99.25
3400.387	-101.25
3403.348	-98.25
3406.307	-101.25
3409.263	-103.25
3412.217	-100.25
3415.168	-103.25
3418.118	-100.25
3421.065	-108.25
3424.009	-100.25
3426.951	-106.25
3429.891	-103.25
3432.829	-101.25
3435.764	-103.25
3438.697	-101.25
3441.628	-103.25
3444.557	-102.25
3447.483	-106.25
3450.407	-106.25
3453.328	-106.25
3456.247	-105.25
3459.164	-105.25
3462.079	-103.25
3464.991	-109.25
3467.902	-105.25
3470.809	-115.25
3473.715	-107.25
3476.618	-108.25
3479.519	-104.25
3482.418	-111.25
3485.315	-114.25
3488.209	-113.25
3491.101	-105.25
3493.99	-110.25
3496.878	-108.25
3499.763	-114.25
3502.646	-110.25
3505.527	-117.25
3508.405	-115.25
3511.281	-111.25
3514.155	-108.25
3517.027	-110.25
3519.897	-109.25
3522.764	-109.25
3525.629	-113.25
3528.492	-109.25
3531.352	-109.25
3534.211	-115.25
3537.067	-109.25
3539.921	-109.25
3542.773	-110.25
3545.622	-109.25
3548.469	-114.25
3551.315	-108.25
3554.157	-104.25
3556.998	-112.25
3559.837	-107.25
3562.673	-103.25
3565.507	-108.25
3568.339	-107.25
3571.169	-111.25
3573.996	-114.25
3576.822	-104.25
3579.645	-109.25
3582.466	-106.25
3585.285	-114.25
3588.101	-118.25
3590.916	-115.25
3593.728	-111.25
3596.538	-113.25
3599.346	-112.25
3602.152	-113.25
3604.956	-110.25
3607.757	-116.25
3610.556	-111.25
3613.354	-113.25
3616.149	-113.25
3618.942	-114.25
3621.732	-114.25
3624.521	-113.25
3627.307	-115.25
3630.092	-114.25
3632.874	-116.25
3635.654	-111.25
3638.432	-121.25
3641.208	-120.25
3643.982	-113.25
3646.753	-113.25
3649.523	-115.25
3652.29	-117.25
3655.055	-116.25
3657.818	-116.25
3660.579	-118.25
3663.338	-118.25
3666.095	-117.25
3668.849	-120.25
3671.602	-114.25
3674.352	-121.25
3677.101	-112.25
3679.847	-118.25
3682.591	-114.25
3685.333	-115.25
3688.073	-116.25
3690.811	-112.25
3693.547	-113.25
3696.281	-110.25
3699.013	-118.25
3701.742	-113.25
3704.47	-121.25
3707.195	-110.25
3709.919	-114.25
3712.64	-118.25
3715.359	-119.25
3718.076	-111.25
3720.792	-115.25
3723.505	-118.25
3726.216	-121.25
3728.925	-115.25
3731.632	-120.25
3734.336	-118.25
3737.039	-121.25
3739.74	-118.25
3742.439	-114.25
3745.136	-116.25
3747.83	-121.25
3750.523	-117.25
3753.213	-130.25
3755.902	-122.25
3758.589	-124.25
3761.273	-125.25
3763.956	-123.25
3766.636	-118.25
3769.315	-117.25
3771.991	-117.25
3774.665	-115.25
3777.338	-118.25
3780.008	-123.25
3782.677	-120.25
3785.343	-124.25
3788.007	-127.25
3790.67	-116.25
3793.33	-122.25
3795.989	-113.25
3798.645	-120.25
3801.299	-117.25
3803.952	-121.25
3806.602	-121.25
3809.251	-121.25
3811.897	-119.25
3814.542	-119.25
3817.184	-116.25
3819.825	-116.25
3822.463	-115.25
3825.1	-120.25
3827.735	-114.25
3830.367	-120.25
3832.998	-111.25
3835.627	-117.25
3838.253	-117.25
3840.878	-114.25
3843.501	-114.25
3846.122	-116.25
3848.741	-114.25
3851.358	-109.25
3853.973	-112.25
3856.586	-121.25
3859.197	-111.25
3861.806	-112.25
3864.414	-108.25
3867.019	-102.25
3869.622	-102.25
3872.224	-86.25
3874.823	-51.25
3877.421	-17.25
3880.016	44.75
3882.61	103.75
3885.202	128.75
3887.792	67.75
3890.38	-3.25
3892.966	-55.25
3895.55	-88.25
3898.132	-109.25
3900.713	-112.25
3903.291	-117.25
3905.868	-117.25
3908.442	-119.25
3911.015	-123.25
3913.586	-115.25
3916.155	-116.25
3918.722	-121.25
3921.287	-119.25
3923.85	-125.25
3926.411	-122.25
3928.971	-123.25
3931.528	-120.25
3934.084	-128.25
3936.638	-123.25
3939.19	-122.25
3941.74	-121.25
3944.288	-127.25
3946.834	-117.25
3949.378	-121.25
3951.921	-117.25
3954.462	-111.25
3957	-114.25
3959.537	-107.25
3962.072	-106.25
3964.606	-117.25
3967.137	-115.25
3969.667	-118.25
3972.194	-116.25
3974.72	-117.25
3977.244	-121.25
3979.766	-122.25
3982.286	-116.25
3984.805	-120.25
3987.321	-118.25
3989.836	-117.25
3992.349	-114.25
3994.86	-120.25
3997.369	-119.25
3999.877	-113.25
4002.382	-114.25
4004.886	-115.25
4007.388	-112.25
4009.888	-116.25
4012.386	-115.25
4014.883	-118.25
4017.377	-110.25
4019.87	-113.25
4022.361	-117.25
4024.85	-118.25
4027.338	-111.25
4029.823	-117.25
4032.307	-118.25
4034.789	-116.25
4037.269	-118.25
4039.747	-115.25
4042.224	-116.25
4044.699	-111.25
4047.172	-115.25
4049.643	-111.25
4052.112	-108.25
4054.58	-120.25
4057.046	-114.25
4059.51	-120.25
4061.972	-115.25
4064.432	-116.25
4066.891	-118.25
4069.348	-112.25
4071.803	-115.25
4074.256	-113.25
4076.708	-119.25
4079.158	-113.25
4081.606	-118.25
4084.052	-124.25
4086.497	-118.25
4088.939	-121.25
4091.38	-117.25
4093.819	-118.25
4096.257	-120.25
4098.693	-124.25
4101.127	-122.25
4103.559	-123.25
4105.989	73.75
4108.418	67.75
4110.845	59.75
4113.27	57.75
4115.694	47.75
4118.115	48.75
4120.535	-114.25
4122.954	-117.25
4125.37	-122.25
4127.785	-125.25
4130.198	-118.25
4132.609	-119.25
4135.019	-123.25
4137.427	-122.25
4139.833	-119.25
4142.237	-125.25