File: Data/Raman/2017-08-29 - Alluminum 2/Aug 29 2017 - Aluminum 2/water 5_RamanShift_1.txt
Data from water 5_RamanShift_1.txt Node

Date: Tue Aug 29 12:49:07 IDT 2017
User: aro
Spectrometer: QEPB0276
Trigger mode: 0
Integration Time (sec): 3.000000E1
Scans to average: 1
Electric dark correction enabled: true
Nonlinearity correction enabled: false
Boxcar width: 0
XAxis mode: Raman Shifts
Number of Pixels in Spectrum: 1044
>>>>>Begin Spectral Data<<<<<
160.701	38.88
166.742	43.88
172.777	78.88
178.805	193.88
184.826	443.88
190.841	871.88
196.849	1393.88
202.85	1775.88
208.845	1929.88
214.833	1940.88
220.815	1958.88
226.789	2003.88
232.758	2065.88
238.719	2117.88
244.674	2172.88
250.623	2204.88
256.565	2244.88
262.5	2290.88
268.429	2331.88
274.351	2396.88
280.267	2436.88
286.176	2495.88
292.079	2543.88
297.975	2568.88
303.865	2600.88
309.748	2658.88
315.625	2680.88
321.495	2732.88
327.359	2755.88
333.217	2769.88
339.068	2810.88
344.912	2833.88
350.751	2881.88
356.583	2918.88
362.408	2951.88
368.227	3028.88
374.04	3183.88
379.847	3405.88
385.647	3530.88
391.44	3384.88
397.228	3239.88
403.009	3270.88
408.784	3596.88
414.553	4236.88
420.315	5036.88
426.071	5073.88
431.821	4256.88
437.565	3551.88
443.302	3324.88
449.033	3203.88
454.758	3141.88
460.477	3102.88
466.189	3021.88
471.896	2919.88
477.596	2901.88
483.29	2891.88
488.978	2900.88
494.66	2853.88
500.335	2674.88
506.005	2430.88
511.668	2132.88
517.325	1916.88
522.977	1735.88
528.622	1590.88
534.261	1478.88
539.894	1404.88
545.521	1344.88
551.141	1327.88
556.756	1294.88
562.365	1246.88
567.968	1243.88
573.565	1244.88
579.155	1258.88
584.74	1259.88
590.319	1234.88
595.892	1216.88
601.459	1211.88
607.02	1233.88
612.575	1221.88
618.124	1177.88
623.667	1132.88
629.204	1141.88
634.735	1209.88
640.261	1366.88
645.781	1625.88
651.294	1720.88
656.802	1539.88
662.304	1216.88
667.8	1087.88
673.29	1032.88
678.775	992.88
684.254	986.88
689.726	961.88
695.193	940.88
700.655	935.88
706.11	934.88
711.56	918.88
717.004	924.88
722.442	931.88
727.874	923.88
733.301	953.88
738.722	969.88
744.137	1012.88
749.547	1106.88
754.951	1151.88
760.349	1127.88
765.741	1063.88
771.128	1046.88
776.509	1061.88
781.885	1115.88
787.254	1148.88
792.618	1175.88
797.977	1194.88
803.33	1164.88
808.677	1173.88
814.019	1137.88
819.355	1120.88
824.686	1095.88
830.011	1088.88
835.33	1054.88
840.644	1045.88
845.952	1002.88
851.255	982.88
856.552	929.88
861.844	905.88
867.13	881.88
872.41	875.88
877.686	854.88
882.955	824.88
888.219	814.88
893.478	820.88
898.731	800.88
903.979	818.88
909.221	782.88
914.458	787.88
919.69	804.88
924.916	791.88
930.136	788.88
935.351	782.88
940.561	784.88
945.766	769.88
950.965	784.88
956.158	775.88
961.347	771.88
966.529	751.88
971.707	755.88
976.879	750.88
982.046	745.88
987.208	744.88
992.364	740.88
997.515	753.88
1002.66	751.88
1007.801	753.88
1012.936	781.88
1018.066	777.88
1023.19	795.88
1028.309	808.88
1033.423	816.88
1038.532	817.88
1043.636	832.88
1048.734	840.88
1053.827	832.88
1058.915	821.88
1063.998	835.88
1069.075	832.88
1074.147	831.88
1079.214	824.88
1084.276	831.88
1089.333	801.88
1094.385	808.88
1099.431	803.88
1104.472	801.88
1109.509	786.88
1114.54	758.88
1119.565	735.88
1124.586	719.88
1129.602	709.88
1134.613	710.88
1139.618	720.88
1144.619	731.88
1149.614	723.88
1154.604	739.88
1159.589	758.88
1164.57	762.88
1169.545	753.88
1174.515	761.88
1179.48	742.88
1184.44	748.88
1189.395	744.88
1194.345	746.88
1199.29	752.88
1204.23	753.88
1209.165	757.88
1214.095	756.88
1219.021	755.88
1223.941	755.88
1228.856	771.88
1233.766	775.88
1238.672	748.88
1243.572	753.88
1248.467	745.88
1253.358	725.88
1258.244	709.88
1263.124	688.88
1268	682.88
1272.871	669.88
1277.737	646.88
1282.599	651.88
1287.455	650.88
1292.306	652.88
1297.153	658.88
1301.995	670.88
1306.832	659.88
1311.664	672.88
1316.491	673.88
1321.314	664.88
1326.132	656.88
1330.945	647.88
1335.753	662.88
1340.556	633.88
1345.354	627.88
1350.148	638.88
1354.937	631.88
1359.722	630.88
1364.501	619.88
1369.276	624.88
1374.046	622.88
1378.811	611.88
1383.572	605.88
1388.327	619.88
1393.079	611.88
1397.825	586.88
1402.567	588.88
1407.304	570.88
1412.036	568.88
1416.764	570.88
1421.487	566.88
1426.205	569.88
1430.919	576.88
1435.628	589.88
1440.333	577.88
1445.032	583.88
1449.727	590.88
1454.418	599.88
1459.104	592.88
1463.785	583.88
1468.462	594.88
1473.134	589.88
1477.802	572.88
1482.465	570.88
1487.123	575.88
1491.777	586.88
1496.426	592.88
1501.071	594.88
1505.711	612.88
1510.347	600.88
1514.978	626.88
1519.604	627.88
1524.226	622.88
1528.844	605.88
1533.457	606.88
1538.065	599.88
1542.669	579.88
1547.269	574.88
1551.864	578.88
1556.454	585.88
1561.041	594.88
1565.622	579.88
1570.199	552.88
1574.772	553.88
1579.34	541.88
1583.904	551.88
1588.464	538.88
1593.019	537.88
1597.569	545.88
1602.115	524.88
1606.657	525.88
1611.195	520.88
1615.728	514.88
1620.256	506.88
1624.78	499.88
1629.3	495.88
1633.816	511.88
1638.327	509.88
1642.834	503.88
1647.336	514.88
1651.834	512.88
1656.328	524.88
1660.817	524.88
1665.302	523.88
1669.783	518.88
1674.259	520.88
1678.732	516.88
1683.199	504.88
1687.663	512.88
1692.122	502.88
1696.577	512.88
1701.028	511.88
1705.474	507.88
1709.917	508.88
1714.355	509.88
1718.788	498.88
1723.218	489.88
1727.643	488.88
1732.064	482.88
1736.481	478.88
1740.893	463.88
1745.301	437.88
1749.705	437.88
1754.105	424.88
1758.501	425.88
1762.893	415.88
1767.28	414.88
1771.663	397.88
1776.042	408.88
1780.417	413.88
1784.787	407.88
1789.154	408.88
1793.516	411.88
1797.874	420.88
1802.228	422.88
1806.578	429.88
1810.924	415.88
1815.266	409.88
1819.603	391.88
1823.937	394.88
1828.266	384.88
1832.591	374.88
1836.913	367.88
1841.23	370.88
1845.543	363.88
1849.852	370.88
1854.156	372.88
1858.457	369.88
1862.754	370.88
1867.047	377.88
1871.335	377.88
1875.62	378.88
1879.9	375.88
1884.177	380.88
1888.449	374.88
1892.718	382.88
1896.982	373.88
1901.243	372.88
1905.499	369.88
1909.752	366.88
1914	370.88
1918.245	380.88
1922.485	391.88
1926.722	382.88
1930.954	391.88
1935.183	402.88
1939.408	394.88
1943.628	391.88
1947.845	387.88
1952.058	378.88
1956.267	379.88
1960.472	363.88
1964.673	361.88
1968.87	349.88
1973.063	342.88
1977.252	335.88
1981.438	331.88
1985.619	316.88
1989.797	312.88
1993.971	309.88
1998.14	311.88
2002.306	314.88
2006.469	309.88
2010.627	308.88
2014.781	299.88
2018.932	306.88
2023.078	293.88
2027.221	300.88
2031.36	293.88
2035.495	292.88
2039.627	283.88
2043.754	282.88
2047.878	282.88
2051.998	281.88
2056.114	274.88
2060.226	282.88
2064.334	295.88
2068.439	285.88
2072.54	291.88
2076.637	284.88
2080.73	295.88
2084.82	289.88
2088.906	306.88
2092.988	304.88
2097.066	297.88
2101.14	300.88
2105.211	288.88
2109.278	287.88
2113.342	284.88
2117.401	283.88
2121.457	268.88
2125.509	271.88
2129.558	276.88
2133.602	269.88
2137.643	261.88
2141.681	261.88
2145.714	249.88
2149.744	257.88
2153.77	257.88
2157.793	250.88
2161.812	247.88
2165.827	248.88
2169.838	245.88
2173.846	236.88
2177.851	240.88
2181.851	233.88
2185.848	234.88
2189.841	230.88
2193.831	224.88
2197.817	225.88
2201.799	234.88
2205.778	231.88
2209.753	213.88
2213.725	216.88
2217.693	218.88
2221.657	221.88
2225.618	222.88
2229.575	213.88
2233.529	220.88
2237.479	218.88
2241.425	213.88
2245.368	224.88
2249.307	209.88
2253.243	210.88
2257.175	204.88
2261.104	202.88
2265.029	197.88
2268.95	192.88
2272.868	200.88
2276.783	190.88
2280.694	191.88
2284.601	188.88
2288.505	199.88
2292.405	190.88
2296.302	181.88
2300.195	177.88
2304.085	181.88
2307.971	175.88
2311.854	174.88
2315.734	176.88
2319.609	171.88
2323.482	172.88
2327.351	194.88
2331.216	217.88
2335.078	224.88
2338.937	198.88
2342.792	156.88
2346.643	166.88
2350.492	165.88
2354.336	160.88
2358.178	161.88
2362.015	161.88
2365.85	164.88
2369.681	154.88
2373.508	168.88
2377.333	168.88
2381.153	172.88
2384.971	148.88
2388.785	158.88
2392.595	158.88
2396.402	160.88
2400.206	145.88
2404.007	152.88
2407.804	147.88
2411.597	151.88
2415.388	151.88
2419.174	152.88
2422.958	154.88
2426.738	147.88
2430.515	149.88
2434.289	144.88
2438.059	143.88
2441.825	144.88
2445.589	130.88
2449.349	138.88
2453.106	135.88
2456.859	138.88
2460.61	133.88
2464.356	123.88
2468.1	117.88
2471.84	129.88
2475.577	121.88
2479.311	125.88
2483.041	129.88
2486.768	124.88
2490.492	132.88
2494.213	125.88
2497.93	121.88
2501.644	124.88
2505.355	117.88
2509.062	122.88
2512.766	119.88
2516.467	129.88
2520.165	118.88
2523.859	115.88
2527.551	112.88
2531.239	120.88
2534.923	113.88
2538.605	118.88
2542.283	118.88
2545.958	116.88
2549.63	114.88
2553.299	114.88
2556.964	122.88
2560.626	113.88
2564.285	109.88
2567.941	114.88
2571.594	104.88
2575.243	111.88
2578.89	115.88
2582.533	113.88
2586.173	105.88
2589.809	100.88
2593.443	103.88
2597.073	106.88
2600.701	103.88
2604.325	102.88
2607.946	98.88
2611.564	103.88
2615.178	97.88
2618.79	87.88
2622.398	95.88
2626.004	83.88
2629.606	85.88
2633.205	89.88
2636.801	87.88
2640.394	87.88
2643.983	79.88
2647.57	84.88
2651.153	80.88
2654.734	82.88
2658.311	80.88
2661.885	72.88
2665.456	78.88
2669.025	68.88
2672.589	70.88
2676.151	69.88
2679.71	66.88
2683.266	76.88
2686.819	61.88
2690.368	59.88
2693.915	62.88
2697.458	56.88
2700.999	54.88
2704.536	51.88
2708.071	55.88
2711.602	49.88
2715.13	46.88
2718.656	40.88
2722.178	43.88
2725.697	43.88
2729.214	38.88
2732.727	56.88
2736.237	51.88
2739.744	47.88
2743.249	46.88
2746.75	55.88
2750.248	52.88
2753.743	48.88
2757.236	50.88
2760.725	44.88
2764.211	45.88
2767.695	57.88
2771.175	47.88
2774.652	45.88
2778.127	56.88
2781.598	35.88
2785.067	34.88
2788.532	40.88
2791.995	40.88
2795.455	43.88
2798.911	40.88
2802.365	41.88
2805.816	48.88
2809.264	38.88
2812.709	35.88
2816.151	36.88
2819.59	40.88
2823.026	47.88
2826.46	38.88
2829.89	32.88
2833.318	38.88
2836.742	39.88
2840.164	33.88
2843.583	35.88
2846.999	41.88
2850.412	25.88
2853.822	38.88
2857.229	44.88
2860.634	33.88
2864.035	34.88
2867.434	31.88
2870.83	29.88
2874.223	27.88
2877.613	18.88
2881	22.88
2884.385	13.88
2887.766	21.88
2891.145	20.88
2894.521	18.88
2897.894	8.88
2901.264	7.88
2904.631	4.88
2907.996	6.88
2911.358	11.88
2914.717	11.88
2918.073	6.88
2921.426	8.88
2924.777	5.88
2928.124	1.88
2931.469	0.88
2934.811	0.88
2938.15	-0.12
2941.487	4.88
2944.821	0.88
2948.152	-5.12
2951.48	-8.12
2954.805	1.88
2958.128	-5.12
2961.447	-5.12
2964.765	-14.12
2968.079	-6.12
2971.39	-7.12
2974.699	-5.12
2978.005	-5.12
2981.308	-7.12
2984.609	-11.12
2987.907	-3.12
2991.202	-8.12
2994.494	-5.12
2997.784	-10.12
3001.07	-8.12
3004.355	-10.12
3007.636	-11.12
3010.915	-15.12
3014.191	-18.12
3017.464	-18.12
3020.734	-16.12
3024.002	-25.12
3027.267	-17.12
3030.53	-17.12
3033.789	-18.12
3037.046	-20.12
3040.301	-28.12
3043.552	-27.12
3046.801	-25.12
3050.048	-28.12
3053.291	-24.12
3056.532	-24.12
3059.771	-22.12
3063.006	-31.12
3066.239	-30.12
3069.469	-23.12
3072.697	-31.12
3075.922	-31.12
3079.144	-29.12
3082.364	-25.12
3085.581	-23.12
3088.795	-34.12
3092.007	-36.12
3095.216	-31.12
3098.423	-33.12
3101.627	-26.12
3104.828	-33.12
3108.026	-32.12
3111.222	-37.12
3114.416	-30.12
3117.607	-28.12
3120.795	-31.12
3123.98	-35.12
3127.163	-35.12
3130.344	-30.12
3133.521	-35.12
3136.696	-31.12
3139.869	-35.12
3143.039	-37.12
3146.206	-38.12
3149.371	-32.12
3152.533	-37.12
3155.693	-36.12
3158.85	-35.12
3162.005	-37.12
3165.157	-41.12
3168.306	-34.12
3171.453	-36.12
3174.597	-41.12
3177.739	-43.12
3180.878	-44.12
3184.014	-42.12
3187.149	-47.12
3190.28	-44.12
3193.409	-42.12
3196.536	-50.12
3199.659	-43.12
3202.781	-47.12
3205.9	-49.12
3209.016	-58.12
3212.13	-49.12
3215.241	-54.12
3218.35	-49.12
3221.456	-46.12
3224.56	-48.12
3227.661	2.88
3230.76	0.88
3233.856	-52.12
3236.95	-54.12
3240.041	-54.12
3243.13	-58.12
3246.216	-53.12
3249.3	-52.12
3252.382	-57.12
3255.46	-53.12
3258.537	-28.12
3261.611	-56.12
3264.682	-52.12
3267.751	-56.12
3270.818	-62.12
3273.882	-58.12
3276.943	-58.12
3280.002	-53.12
3283.059	-61.12
3286.113	-52.12
3289.165	-53.12
3292.214	-57.12
3295.261	-53.12
3298.306	-59.12
3301.348	-66.12
3304.387	-68.12
3307.425	-65.12
3310.459	-62.12
3313.492	-59.12
3316.521	-67.12
3319.549	-62.12
3322.574	-69.12
3325.597	-69.12
3328.617	-64.12
3331.635	-64.12
3334.65	-62.12
3337.663	-69.12
3340.674	-64.12
3343.682	-69.12
3346.688	-70.12
3349.691	-66.12
3352.692	-66.12
3355.691	-69.12
3358.687	-64.12
3361.681	-63.12
3364.673	-68.12
3367.662	-64.12
3370.649	-68.12
3373.633	-67.12
3376.615	-65.12
3379.595	-67.12
3382.572	-68.12
3385.547	-69.12
3388.52	-66.12
3391.49	-65.12
3394.458	-76.12
3397.424	-63.12
3400.387	-69.12
3403.348	-67.12
3406.307	-63.12
3409.263	-68.12
3412.217	-70.12
3415.168	-69.12
3418.118	-67.12
3421.065	-71.12
3424.009	-70.12
3426.951	-76.12
3429.891	-69.12
3432.829	-72.12
3435.764	-76.12
3438.697	-66.12
3441.628	-69.12
3444.557	-73.12
3447.483	-67.12
3450.407	-78.12
3453.328	-69.12
3456.247	-75.12
3459.164	-70.12
3462.079	-72.12
3464.991	-79.12
3467.902	-77.12
3470.809	-78.12
3473.715	-75.12
3476.618	-73.12
3479.519	-72.12
3482.418	-74.12
3485.315	-75.12
3488.209	-78.12
3491.101	-72.12
3493.99	-74.12
3496.878	-76.12
3499.763	-76.12
3502.646	-76.12
3505.527	-81.12
3508.405	-81.12
3511.281	-80.12
3514.155	-65.12
3517.027	-77.12
3519.897	-74.12
3522.764	-72.12
3525.629	-71.12
3528.492	-72.12
3531.352	-76.12
3534.211	-75.12
3537.067	-77.12
3539.921	-73.12
3542.773	-80.12
3545.622	-76.12
3548.469	-75.12
3551.315	-76.12
3554.157	-75.12
3556.998	-79.12
3559.837	-71.12
3562.673	-74.12
3565.507	-78.12
3568.339	-74.12
3571.169	-77.12
3573.996	-76.12
3576.822	-70.12
3579.645	-81.12
3582.466	-73.12
3585.285	-79.12
3588.101	-83.12
3590.916	-81.12
3593.728	-70.12
3596.538	-85.12
3599.346	-77.12
3602.152	-79.12
3604.956	-79.12
3607.757	-81.12
3610.556	-81.12
3613.354	-74.12
3616.149	-86.12
3618.942	-80.12
3621.732	-78.12
3624.521	-77.12
3627.307	-82.12
3630.092	-81.12
3632.874	-82.12
3635.654	-79.12
3638.432	-82.12
3641.208	-81.12
3643.982	-76.12
3646.753	-81.12
3649.523	-85.12
3652.29	-87.12
3655.055	-79.12
3657.818	-80.12
3660.579	-81.12
3663.338	-80.12
3666.095	-82.12
3668.849	-79.12
3671.602	-84.12
3674.352	-83.12
3677.101	-78.12
3679.847	-88.12
3682.591	-83.12
3685.333	-84.12
3688.073	-86.12
3690.811	-81.12
3693.547	-81.12
3696.281	-83.12
3699.013	-80.12
3701.742	-79.12
3704.47	-88.12
3707.195	-81.12
3709.919	-83.12
3712.64	-88.12
3715.359	-83.12
3718.076	-79.12
3720.792	-82.12
3723.505	-85.12
3726.216	-87.12
3728.925	-81.12
3731.632	-83.12
3734.336	-82.12
3737.039	-90.12
3739.74	-89.12
3742.439	-79.12
3745.136	-85.12
3747.83	-80.12
3750.523	-80.12
3753.213	-109.12
3755.902	-87.12
3758.589	-80.12
3761.273	-95.12
3763.956	-83.12
3766.636	-81.12
3769.315	-87.12
3771.991	-83.12
3774.665	-78.12
3777.338	-82.12
3780.008	-91.12
3782.677	-87.12
3785.343	-93.12
3788.007	-90.12
3790.67	-87.12
3793.33	-86.12
3795.989	-84.12
3798.645	-90.12
3801.299	-85.12
3803.952	-84.12
3806.602	-89.12
3809.251	-89.12
3811.897	-90.12
3814.542	-91.12
3817.184	-84.12
3819.825	-86.12
3822.463	-84.12
3825.1	-88.12
3827.735	-85.12
3830.367	-89.12
3832.998	-80.12
3835.627	-86.12
3838.253	-86.12
3840.878	-84.12
3843.501	-82.12
3846.122	-91.12
3848.741	-85.12
3851.358	-84.12
3853.973	-83.12
3856.586	-88.12
3859.197	-78.12
3861.806	-84.12
3864.414	-88.12
3867.019	-80.12
3869.622	-73.12
3872.224	-68.12
3874.823	-49.12
3877.421	-29.12
3880.016	11.88
3882.61	45.88
3885.202	68.88
3887.792	31.88
3890.38	-12.12
3892.966	-47.12
3895.55	-68.12
3898.132	-85.12
3900.713	-85.12
3903.291	-91.12
3905.868	-89.12
3908.442	-85.12
3911.015	-86.12
3913.586	-91.12
3916.155	-90.12
3918.722	-85.12
3921.287	-88.12
3923.85	-89.12
3926.411	-88.12
3928.971	-88.12
3931.528	-87.12
3934.084	-89.12
3936.638	-89.12
3939.19	-88.12
3941.74	-86.12
3944.288	-86.12
3946.834	-84.12
3949.378	-87.12
3951.921	-82.12
3954.462	-90.12
3957	-82.12
3959.537	-78.12
3962.072	-77.12
3964.606	-86.12
3967.137	-82.12
3969.667	-85.12
3972.194	-90.12
3974.72	-83.12
3977.244	-86.12
3979.766	-89.12
3982.286	-80.12
3984.805	-85.12
3987.321	-84.12
3989.836	-81.12
3992.349	-80.12
3994.86	-87.12
3997.369	-80.12
3999.877	-78.12
4002.382	-81.12
4004.886	-83.12
4007.388	-75.12
4009.888	-82.12
4012.386	-84.12
4014.883	-82.12
4017.377	-80.12
4019.87	-77.12
4022.361	-84.12
4024.85	-83.12
4027.338	-80.12
4029.823	-82.12
4032.307	-83.12
4034.789	-87.12
4037.269	-82.12
4039.747	-81.12
4042.224	-87.12
4044.699	-86.12
4047.172	-84.12
4049.643	-81.12
4052.112	-83.12
4054.58	-87.12
4057.046	-81.12
4059.51	-88.12
4061.972	-86.12
4064.432	-82.12
4066.891	-85.12
4069.348	-83.12
4071.803	-81.12
4074.256	-81.12
4076.708	-83.12
4079.158	-82.12
4081.606	-84.12
4084.052	-91.12
4086.497	-86.12
4088.939	-89.12
4091.38	-86.12
4093.819	-86.12
4096.257	-86.12
4098.693	-90.12
4101.127	-89.12
4103.559	-89.12
4105.989	56.88
4108.418	54.88
4110.845	46.88
4113.27	34.88
4115.694	38.88
4118.115	46.88
4120.535	-80.12
4122.954	-81.12
4125.37	-89.12
4127.785	-85.12
4130.198	-86.12
4132.609	-86.12
4135.019	-86.12
4137.427	-89.12
4139.833	-88.12
4142.237	-92.12