File: Data/Raman/2017-08-29 - Alluminum 2/Aug 29 2017 - Aluminum 2/water 5_RamanShift_3.txt
Data from water 5_RamanShift_3.txt Node

Date: Tue Aug 29 12:50:07 IDT 2017
User: aro
Spectrometer: QEPB0276
Trigger mode: 0
Integration Time (sec): 3.000000E1
Scans to average: 1
Electric dark correction enabled: true
Nonlinearity correction enabled: false
Boxcar width: 0
XAxis mode: Raman Shifts
Number of Pixels in Spectrum: 1044
>>>>>Begin Spectral Data<<<<<
160.701	34.5
166.742	41.5
172.777	78.5
178.805	189.5
184.826	428.5
190.841	863.5
196.849	1386.5
202.85	1758.5
208.845	1918.5
214.833	1933.5
220.815	1954.5
226.789	1992.5
232.758	2060.5
238.719	2086.5
244.674	2164.5
250.623	2184.5
256.565	2222.5
262.5	2277.5
268.429	2311.5
274.351	2375.5
280.267	2426.5
286.176	2487.5
292.079	2500.5
297.975	2583.5
303.865	2610.5
309.748	2638.5
315.625	2665.5
321.495	2720.5
327.359	2726.5
333.217	2764.5
339.068	2793.5
344.912	2811.5
350.751	2875.5
356.583	2887.5
362.408	2932.5
368.227	3027.5
374.04	3172.5
379.847	3403.5
385.647	3503.5
391.44	3349.5
397.228	3235.5
403.009	3249.5
408.784	3575.5
414.553	4237.5
420.315	5018.5
426.071	5054.5
431.821	4235.5
437.565	3515.5
443.302	3316.5
449.033	3194.5
454.758	3121.5
460.477	3098.5
466.189	2997.5
471.896	2915.5
477.596	2889.5
483.29	2872.5
488.978	2895.5
494.66	2818.5
500.335	2654.5
506.005	2414.5
511.668	2135.5
517.325	1898.5
522.977	1714.5
528.622	1571.5
534.261	1468.5
539.894	1381.5
545.521	1329.5
551.141	1286.5
556.756	1271.5
562.365	1244.5
567.968	1243.5
573.565	1231.5
579.155	1246.5
584.74	1248.5
590.319	1213.5
595.892	1189.5
601.459	1200.5
607.02	1213.5
612.575	1208.5
618.124	1158.5
623.667	1125.5
629.204	1133.5
634.735	1196.5
640.261	1368.5
645.781	1594.5
651.294	1693.5
656.802	1514.5
662.304	1214.5
667.8	1064.5
673.29	1004.5
678.775	969.5
684.254	964.5
689.726	955.5
695.193	938.5
700.655	926.5
706.11	915.5
711.56	914.5
717.004	932.5
722.442	943.5
727.874	927.5
733.301	946.5
738.722	968.5
744.137	1025.5
749.547	1099.5
754.951	1141.5
760.349	1115.5
765.741	1068.5
771.128	1029.5
776.509	1059.5
781.885	1101.5
787.254	1153.5
792.618	1165.5
797.977	1169.5
803.33	1149.5
808.677	1161.5
814.019	1143.5
819.355	1121.5
824.686	1105.5
830.011	1077.5
835.33	1045.5
840.644	1036.5
845.952	1017.5
851.255	972.5
856.552	928.5
861.844	904.5
867.13	867.5
872.41	854.5
877.686	832.5
882.955	815.5
888.219	816.5
893.478	802.5
898.731	793.5
903.979	794.5
909.221	781.5
914.458	768.5
919.69	770.5
924.916	779.5
930.136	774.5
935.351	783.5
940.561	787.5
945.766	773.5
950.965	781.5
956.158	755.5
961.347	755.5
966.529	769.5
971.707	749.5
976.879	746.5
982.046	726.5
987.208	737.5
992.364	744.5
997.515	742.5
1002.66	740.5
1007.801	757.5
1012.936	766.5
1018.066	767.5
1023.19	790.5
1028.309	797.5
1033.423	809.5
1038.532	814.5
1043.636	821.5
1048.734	819.5
1053.827	816.5
1058.915	824.5
1063.998	832.5
1069.075	818.5
1074.147	823.5
1079.214	812.5
1084.276	814.5
1089.333	813.5
1094.385	804.5
1099.431	787.5
1104.472	791.5
1109.509	769.5
1114.54	750.5
1119.565	730.5
1124.586	725.5
1129.602	709.5
1134.613	702.5
1139.618	715.5
1144.619	716.5
1149.614	711.5
1154.604	721.5
1159.589	733.5
1164.57	750.5
1169.545	747.5
1174.515	752.5
1179.48	743.5
1184.44	766.5
1189.395	741.5
1194.345	750.5
1199.29	742.5
1204.23	738.5
1209.165	745.5
1214.095	748.5
1219.021	764.5
1223.941	754.5
1228.856	771.5
1233.766	755.5
1238.672	743.5
1243.572	739.5
1248.467	729.5
1253.358	718.5
1258.244	706.5
1263.124	687.5
1268	670.5
1272.871	665.5
1277.737	651.5
1282.599	653.5
1287.455	639.5
1292.306	646.5
1297.153	665.5
1301.995	653.5
1306.832	651.5
1311.664	660.5
1316.491	666.5
1321.314	653.5
1326.132	652.5
1330.945	654.5
1335.753	636.5
1340.556	634.5
1345.354	631.5
1350.148	618.5
1354.937	628.5
1359.722	626.5
1364.501	628.5
1369.276	632.5
1374.046	621.5
1378.811	614.5
1383.572	615.5
1388.327	619.5
1393.079	608.5
1397.825	596.5
1402.567	578.5
1407.304	567.5
1412.036	567.5
1416.764	568.5
1421.487	574.5
1426.205	555.5
1430.919	555.5
1435.628	594.5
1440.333	573.5
1445.032	583.5
1449.727	598.5
1454.418	601.5
1459.104	596.5
1463.785	581.5
1468.462	575.5
1473.134	589.5
1477.802	580.5
1482.465	588.5
1487.123	581.5
1491.777	581.5
1496.426	579.5
1501.071	600.5
1505.711	605.5
1510.347	604.5
1514.978	631.5
1519.604	622.5
1524.226	626.5
1528.844	617.5
1533.457	597.5
1538.065	593.5
1542.669	579.5
1547.269	575.5
1551.864	584.5
1556.454	585.5
1561.041	604.5
1565.622	580.5
1570.199	553.5
1574.772	544.5
1579.34	545.5
1583.904	547.5
1588.464	535.5
1593.019	543.5
1597.569	553.5
1602.115	523.5
1606.657	526.5
1611.195	523.5
1615.728	502.5
1620.256	511.5
1624.78	503.5
1629.3	496.5
1633.816	499.5
1638.327	499.5
1642.834	504.5
1647.336	520.5
1651.834	511.5
1656.328	518.5
1660.817	524.5
1665.302	512.5
1669.783	503.5
1674.259	523.5
1678.732	515.5
1683.199	515.5
1687.663	502.5
1692.122	497.5
1696.577	511.5
1701.028	511.5
1705.474	499.5
1709.917	516.5
1714.355	509.5
1718.788	494.5
1723.218	499.5
1727.643	486.5
1732.064	475.5
1736.481	453.5
1740.893	459.5
1745.301	449.5
1749.705	432.5
1754.105	427.5
1758.501	415.5
1762.893	411.5
1767.28	406.5
1771.663	400.5
1776.042	398.5
1780.417	410.5
1784.787	400.5
1789.154	408.5
1793.516	411.5
1797.874	415.5
1802.228	421.5
1806.578	415.5
1810.924	408.5
1815.266	402.5
1819.603	400.5
1823.937	388.5
1828.266	371.5
1832.591	376.5
1836.913	375.5
1841.23	356.5
1845.543	358.5
1849.852	367.5
1854.156	368.5
1858.457	370.5
1862.754	366.5
1867.047	368.5
1871.335	380.5
1875.62	372.5
1879.9	375.5
1884.177	378.5
1888.449	372.5
1892.718	367.5
1896.982	374.5
1901.243	369.5
1905.499	367.5
1909.752	374.5
1914	369.5
1918.245	378.5
1922.485	385.5
1926.722	380.5
1930.954	387.5
1935.183	393.5
1939.408	399.5
1943.628	374.5
1947.845	388.5
1952.058	376.5
1956.267	384.5
1960.472	374.5
1964.673	349.5
1968.87	346.5
1973.063	337.5
1977.252	318.5
1981.438	327.5
1985.619	327.5
1989.797	313.5
1993.971	313.5
1998.14	312.5
2002.306	313.5
2006.469	302.5
2010.627	313.5
2014.781	309.5
2018.932	305.5
2023.078	305.5
2027.221	301.5
2031.36	294.5
2035.495	293.5
2039.627	290.5
2043.754	285.5
2047.878	280.5
2051.998	273.5
2056.114	274.5
2060.226	288.5
2064.334	285.5
2068.439	293.5
2072.54	291.5
2076.637	287.5
2080.73	302.5
2084.82	295.5
2088.906	303.5
2092.988	293.5
2097.066	302.5
2101.14	286.5
2105.211	296.5
2109.278	282.5
2113.342	281.5
2117.401	279.5
2121.457	270.5
2125.509	263.5
2129.558	270.5
2133.602	260.5
2137.643	254.5
2141.681	259.5
2145.714	258.5
2149.744	245.5
2153.77	243.5
2157.793	250.5
2161.812	247.5
2165.827	236.5
2169.838	233.5
2173.846	237.5
2177.851	232.5
2181.851	218.5
2185.848	225.5
2189.841	227.5
2193.831	219.5
2197.817	226.5
2201.799	219.5
2205.778	213.5
2209.753	217.5
2213.725	214.5
2217.693	209.5
2221.657	217.5
2225.618	218.5
2229.575	221.5
2233.529	214.5
2237.479	211.5
2241.425	211.5
2245.368	216.5
2249.307	207.5
2253.243	196.5
2257.175	201.5
2261.104	198.5
2265.029	199.5
2268.95	197.5
2272.868	192.5
2276.783	190.5
2280.694	184.5
2284.601	184.5
2288.505	181.5
2292.405	174.5
2296.302	179.5
2300.195	182.5
2304.085	178.5
2307.971	174.5
2311.854	176.5
2315.734	171.5
2319.609	167.5
2323.482	173.5
2327.351	187.5
2331.216	220.5
2335.078	222.5
2338.937	193.5
2342.792	162.5
2346.643	159.5
2350.492	157.5
2354.336	158.5
2358.178	158.5
2362.015	158.5
2365.85	157.5
2369.681	152.5
2373.508	158.5
2377.333	152.5
2381.153	156.5
2384.971	162.5
2388.785	162.5
2392.595	155.5
2396.402	157.5
2400.206	152.5
2404.007	152.5
2407.804	148.5
2411.597	146.5
2415.388	148.5
2419.174	160.5
2422.958	159.5
2426.738	147.5
2430.515	143.5
2434.289	151.5
2438.059	144.5
2441.825	134.5
2445.589	142.5
2449.349	140.5
2453.106	128.5
2456.859	136.5
2460.61	126.5
2464.356	122.5
2468.1	124.5
2471.84	123.5
2475.577	124.5
2479.311	117.5
2483.041	120.5
2486.768	121.5
2490.492	127.5
2494.213	116.5
2497.93	113.5
2501.644	121.5
2505.355	116.5
2509.062	118.5
2512.766	117.5
2516.467	115.5
2520.165	128.5
2523.859	117.5
2527.551	110.5
2531.239	118.5
2534.923	118.5
2538.605	118.5
2542.283	114.5
2545.958	113.5
2549.63	115.5
2553.299	119.5
2556.964	116.5
2560.626	110.5
2564.285	116.5
2567.941	110.5
2571.594	113.5
2575.243	106.5
2578.89	113.5
2582.533	107.5
2586.173	105.5
2589.809	106.5
2593.443	104.5
2597.073	103.5
2600.701	98.5
2604.325	106.5
2607.946	105.5
2611.564	102.5
2615.178	96.5
2618.79	103.5
2622.398	96.5
2626.004	86.5
2629.606	95.5
2633.205	92.5
2636.801	88.5
2640.394	87.5
2643.983	75.5
2647.57	76.5
2651.153	72.5
2654.734	75.5
2658.311	75.5
2661.885	70.5
2665.456	76.5
2669.025	66.5
2672.589	68.5
2676.151	64.5
2679.71	62.5
2683.266	62.5
2686.819	63.5
2690.368	66.5
2693.915	57.5
2697.458	55.5
2700.999	58.5
2704.536	56.5
2708.071	52.5
2711.602	48.5
2715.13	51.5
2718.656	48.5
2722.178	40.5
2725.697	40.5
2729.214	43.5
2732.727	48.5
2736.237	46.5
2739.744	45.5
2743.249	51.5
2746.75	47.5
2750.248	50.5
2753.743	42.5
2757.236	49.5
2760.725	45.5
2764.211	42.5
2767.695	50.5
2771.175	45.5
2774.652	44.5
2778.127	48.5
2781.598	40.5
2785.067	35.5
2788.532	40.5
2791.995	34.5
2795.455	39.5
2798.911	44.5
2802.365	32.5
2805.816	36.5
2809.264	29.5
2812.709	30.5
2816.151	38.5
2819.59	38.5
2823.026	41.5
2826.46	30.5
2829.89	39.5
2833.318	40.5
2836.742	41.5
2840.164	34.5
2843.583	36.5
2846.999	42.5
2850.412	27.5
2853.822	33.5
2857.229	36.5
2860.634	34.5
2864.035	29.5
2867.434	29.5
2870.83	28.5
2874.223	23.5
2877.613	25.5
2881	21.5
2884.385	19.5
2887.766	14.5
2891.145	23.5
2894.521	19.5
2897.894	13.5
2901.264	19.5
2904.631	16.5
2907.996	3.5
2911.358	7.5
2914.717	7.5
2918.073	6.5
2921.426	2.5
2924.777	11.5
2928.124	5.5
2931.469	7.5
2934.811	1.5
2938.15	2.5
2941.487	3.5
2944.821	-7.5
2948.152	-13.5
2951.48	-3.5
2954.805	-0.5
2958.128	-6.5
2961.447	-3.5
2964.765	-8.5
2968.079	-0.5
2971.39	-8.5
2974.699	-6.5
2978.005	-5.5
2981.308	-5.5
2984.609	-11.5
2987.907	-0.5
2991.202	-5.5
2994.494	-7.5
2997.784	-3.5
3001.07	-12.5
3004.355	-5.5
3007.636	-10.5
3010.915	-10.5
3014.191	-12.5
3017.464	-22.5
3020.734	-18.5
3024.002	-16.5
3027.267	-15.5
3030.53	-17.5
3033.789	-15.5
3037.046	-21.5
3040.301	-22.5
3043.552	-20.5
3046.801	-19.5
3050.048	-29.5
3053.291	-25.5
3056.532	-30.5
3059.771	-24.5
3063.006	-26.5
3066.239	-26.5
3069.469	-22.5
3072.697	-32.5
3075.922	-32.5
3079.144	-28.5
3082.364	-29.5
3085.581	-30.5
3088.795	-32.5
3092.007	-33.5
3095.216	-38.5
3098.423	-33.5
3101.627	-30.5
3104.828	-30.5
3108.026	-28.5
3111.222	-35.5
3114.416	-33.5
3117.607	-34.5
3120.795	-37.5
3123.98	-34.5
3127.163	-30.5
3130.344	-30.5
3133.521	-32.5
3136.696	-30.5
3139.869	-28.5
3143.039	-39.5
3146.206	-40.5
3149.371	-37.5
3152.533	-37.5
3155.693	-39.5
3158.85	-42.5
3162.005	-39.5
3165.157	-38.5
3168.306	-42.5
3171.453	-42.5
3174.597	-41.5
3177.739	-43.5
3180.878	-48.5
3184.014	-47.5
3187.149	-51.5
3190.28	-46.5
3193.409	-42.5
3196.536	-55.5
3199.659	-50.5
3202.781	-48.5
3205.9	-51.5
3209.016	-61.5
3212.13	-56.5
3215.241	-55.5
3218.35	-55.5
3221.456	-54.5
3224.56	-51.5
3227.661	-52.5
3230.76	-56.5
3233.856	-58.5
3236.95	-62.5
3240.041	-57.5
3243.13	-62.5
3246.216	-56.5
3249.3	-59.5
3252.382	-55.5
3255.46	-53.5
3258.537	-34.5
3261.611	-57.5
3264.682	-54.5
3267.751	-54.5
3270.818	-63.5
3273.882	-60.5
3276.943	-59.5
3280.002	-57.5
3283.059	-63.5
3286.113	-56.5
3289.165	-60.5
3292.214	-62.5
3295.261	-56.5
3298.306	-62.5
3301.348	-66.5
3304.387	-62.5
3307.425	-63.5
3310.459	-61.5
3313.492	-64.5
3316.521	-67.5
3319.549	-65.5
3322.574	-65.5
3325.597	-72.5
3328.617	-62.5
3331.635	-63.5
3334.65	-57.5
3337.663	-72.5
3340.674	-62.5
3343.682	-64.5
3346.688	-68.5
3349.691	-67.5
3352.692	-65.5
3355.691	-63.5
3358.687	-64.5
3361.681	-66.5
3364.673	-69.5
3367.662	-62.5
3370.649	-69.5
3373.633	-67.5
3376.615	-65.5
3379.595	-66.5
3382.572	-64.5
3385.547	-69.5
3388.52	-58.5
3391.49	-64.5
3394.458	-67.5
3397.424	-65.5
3400.387	-64.5
3403.348	-65.5
3406.307	-62.5
3409.263	-65.5
3412.217	-67.5
3415.168	-71.5
3418.118	-66.5
3421.065	-67.5
3424.009	-66.5
3426.951	-72.5
3429.891	-69.5
3432.829	-68.5
3435.764	-68.5
3438.697	-65.5
3441.628	-68.5
3444.557	-63.5
3447.483	-71.5
3450.407	-76.5
3453.328	-66.5
3456.247	-75.5
3459.164	-65.5
3462.079	-73.5
3464.991	-68.5
3467.902	-79.5
3470.809	-73.5
3473.715	-73.5
3476.618	-75.5
3479.519	-70.5
3482.418	-79.5
3485.315	-73.5
3488.209	-76.5
3491.101	-74.5
3493.99	-77.5
3496.878	-76.5
3499.763	-79.5
3502.646	-73.5
3505.527	-80.5
3508.405	-74.5
3511.281	-81.5
3514.155	-74.5
3517.027	-73.5
3519.897	-78.5
3522.764	-70.5
3525.629	-81.5
3528.492	-74.5
3531.352	-80.5
3534.211	-81.5
3537.067	-78.5
3539.921	-78.5
3542.773	-80.5
3545.622	-78.5
3548.469	-80.5
3551.315	-74.5
3554.157	-78.5
3556.998	-79.5
3559.837	-73.5
3562.673	-79.5
3565.507	-80.5
3568.339	-75.5
3571.169	-78.5
3573.996	-80.5
3576.822	-76.5
3579.645	-85.5
3582.466	-75.5
3585.285	-79.5
3588.101	-85.5
3590.916	-84.5
3593.728	-77.5
3596.538	-88.5
3599.346	-80.5
3602.152	-80.5
3604.956	-77.5
3607.757	-82.5
3610.556	-74.5
3613.354	-77.5
3616.149	-86.5
3618.942	-77.5
3621.732	-78.5
3624.521	-84.5
3627.307	-84.5
3630.092	-78.5
3632.874	-79.5
3635.654	-81.5
3638.432	-80.5
3641.208	-81.5
3643.982	-79.5
3646.753	-82.5
3649.523	-85.5
3652.29	-84.5
3655.055	-77.5
3657.818	-84.5
3660.579	-84.5
3663.338	-85.5
3666.095	-82.5
3668.849	-80.5
3671.602	-78.5
3674.352	-80.5
3677.101	-82.5
3679.847	-84.5
3682.591	-81.5
3685.333	-83.5
3688.073	-88.5
3690.811	-79.5
3693.547	-80.5
3696.281	-77.5
3699.013	-82.5
3701.742	-82.5
3704.47	-81.5
3707.195	-82.5
3709.919	-81.5
3712.64	-83.5
3715.359	-83.5
3718.076	-79.5
3720.792	-82.5
3723.505	-87.5
3726.216	-85.5
3728.925	-83.5
3731.632	-85.5
3734.336	-83.5
3737.039	-87.5
3739.74	-80.5
3742.439	-82.5
3745.136	-90.5
3747.83	-88.5
3750.523	-84.5
3753.213	-105.5
3755.902	-85.5
3758.589	-86.5
3761.273	-90.5
3763.956	-84.5
3766.636	-83.5
3769.315	-84.5
3771.991	-81.5
3774.665	-79.5
3777.338	-83.5
3780.008	-89.5
3782.677	-87.5
3785.343	-89.5
3788.007	-91.5
3790.67	-81.5
3793.33	-81.5
3795.989	-78.5
3798.645	-87.5
3801.299	-89.5
3803.952	-83.5
3806.602	-88.5
3809.251	-86.5
3811.897	-86.5
3814.542	-88.5
3817.184	-83.5
3819.825	-84.5
3822.463	-81.5
3825.1	-90.5
3827.735	-89.5
3830.367	-92.5
3832.998	-82.5
3835.627	-78.5
3838.253	-90.5
3840.878	-84.5
3843.501	-81.5
3846.122	-90.5
3848.741	-86.5
3851.358	-84.5
3853.973	-84.5
3856.586	-83.5
3859.197	-79.5
3861.806	-85.5
3864.414	-81.5
3867.019	-78.5
3869.622	-79.5
3872.224	-63.5
3874.823	-49.5
3877.421	-25.5
3880.016	9.5
3882.61	49.5
3885.202	67.5
3887.792	31.5
3890.38	-16.5
3892.966	-53.5
3895.55	-69.5
3898.132	-85.5
3900.713	-82.5
3903.291	-89.5
3905.868	-82.5
3908.442	-94.5
3911.015	-89.5
3913.586	-86.5
3916.155	-87.5
3918.722	-84.5
3921.287	-85.5
3923.85	-88.5
3926.411	-84.5
3928.971	-88.5
3931.528	-85.5
3934.084	-89.5
3936.638	-90.5
3939.19	-86.5
3941.74	-87.5
3944.288	-92.5
3946.834	-89.5
3949.378	-90.5
3951.921	-84.5
3954.462	-90.5
3957	-88.5
3959.537	-82.5
3962.072	-74.5
3964.606	-83.5
3967.137	-84.5
3969.667	-88.5
3972.194	-88.5
3974.72	-85.5
3977.244	-87.5
3979.766	-92.5
3982.286	-81.5
3984.805	-81.5
3987.321	-84.5
3989.836	-84.5
3992.349	-83.5
3994.86	-88.5
3997.369	-91.5
3999.877	-83.5
4002.382	-83.5
4004.886	-86.5
4007.388	-79.5
4009.888	-85.5
4012.386	-86.5
4014.883	-85.5
4017.377	-78.5
4019.87	-80.5
4022.361	-82.5
4024.85	-84.5
4027.338	-82.5
4029.823	-85.5
4032.307	-85.5
4034.789	-83.5
4037.269	-87.5
4039.747	-84.5
4042.224	-82.5
4044.699	-77.5
4047.172	-81.5
4049.643	-79.5
4052.112	-81.5
4054.58	-89.5
4057.046	-84.5
4059.51	-91.5
4061.972	-82.5
4064.432	-77.5
4066.891	-86.5
4069.348	-79.5
4071.803	-78.5
4074.256	-80.5
4076.708	-83.5
4079.158	-82.5
4081.606	-84.5
4084.052	-82.5
4086.497	-90.5
4088.939	-85.5
4091.38	-89.5
4093.819	-82.5
4096.257	-89.5
4098.693	-89.5
4101.127	-90.5
4103.559	-93.5
4105.989	58.5
4108.418	53.5
4110.845	39.5
4113.27	34.5
4115.694	40.5
4118.115	31.5
4120.535	-85.5
4122.954	-82.5
4125.37	-85.5
4127.785	-84.5
4130.198	-85.5
4132.609	-85.5
4135.019	-83.5
4137.427	-84.5
4139.833	-84.5
4142.237	-91.5