File: Data/Raman/2017-08-29 - Alluminum 2/Aug 29 2017 - Aluminum 2/water 3_RamanShift_4.txt
Data from water 3_RamanShift_4.txt Node

Date: Tue Aug 29 12:29:07 IDT 2017
User: aro
Spectrometer: QEPB0276
Trigger mode: 0
Integration Time (sec): 3.000000E1
Scans to average: 1
Electric dark correction enabled: true
Nonlinearity correction enabled: false
Boxcar width: 0
XAxis mode: Raman Shifts
Number of Pixels in Spectrum: 1044
>>>>>Begin Spectral Data<<<<<
160.701	34.12
166.742	30.12
172.777	74.12
178.805	167.12
184.826	395.12
190.841	791.12
196.849	1265.12
202.85	1581.12
208.845	1693.12
214.833	1711.12
220.815	1701.12
226.789	1717.12
232.758	1737.12
238.719	1760.12
244.674	1776.12
250.623	1805.12
256.565	1810.12
262.5	1826.12
268.429	1829.12
274.351	1876.12
280.267	1894.12
286.176	1921.12
292.079	1953.12
297.975	2003.12
303.865	2035.12
309.748	2045.12
315.625	2078.12
321.495	2097.12
327.359	2131.12
333.217	2128.12
339.068	2157.12
344.912	2168.12
350.751	2205.12
356.583	2238.12
362.408	2258.12
368.227	2340.12
374.04	2442.12
379.847	2619.12
385.647	2689.12
391.44	2604.12
397.228	2472.12
403.009	2517.12
408.784	2763.12
414.553	3267.12
420.315	3931.12
426.071	3954.12
431.821	3290.12
437.565	2749.12
443.302	2539.12
449.033	2446.12
454.758	2397.12
460.477	2338.12
466.189	2317.12
471.896	2234.12
477.596	2195.12
483.29	2194.12
488.978	2200.12
494.66	2126.12
500.335	2025.12
506.005	1832.12
511.668	1637.12
517.325	1445.12
522.977	1303.12
528.622	1195.12
534.261	1121.12
539.894	1061.12
545.521	1019.12
551.141	990.12
556.756	972.12
562.365	949.12
567.968	950.12
573.565	938.12
579.155	933.12
584.74	943.12
590.319	944.12
595.892	912.12
601.459	918.12
607.02	939.12
612.575	924.12
618.124	889.12
623.667	882.12
629.204	862.12
634.735	922.12
640.261	1060.12
645.781	1269.12
651.294	1364.12
656.802	1174.12
662.304	940.12
667.8	823.12
673.29	778.12
678.775	756.12
684.254	751.12
689.726	729.12
695.193	718.12
700.655	706.12
706.11	717.12
711.56	713.12
717.004	705.12
722.442	711.12
727.874	714.12
733.301	708.12
738.722	738.12
744.137	779.12
749.547	839.12
754.951	868.12
760.349	842.12
765.741	817.12
771.128	786.12
776.509	805.12
781.885	837.12
787.254	863.12
792.618	894.12
797.977	879.12
803.33	863.12
808.677	869.12
814.019	858.12
819.355	836.12
824.686	832.12
830.011	809.12
835.33	796.12
840.644	766.12
845.952	772.12
851.255	739.12
856.552	704.12
861.844	678.12
867.13	645.12
872.41	647.12
877.686	623.12
882.955	618.12
888.219	616.12
893.478	597.12
898.731	581.12
903.979	594.12
909.221	587.12
914.458	581.12
919.69	596.12
924.916	589.12
930.136	587.12
935.351	589.12
940.561	585.12
945.766	572.12
950.965	583.12
956.158	578.12
961.347	562.12
966.529	564.12
971.707	566.12
976.879	563.12
982.046	552.12
987.208	553.12
992.364	549.12
997.515	550.12
1002.66	550.12
1007.801	566.12
1012.936	569.12
1018.066	582.12
1023.19	601.12
1028.309	592.12
1033.423	607.12
1038.532	607.12
1043.636	620.12
1048.734	621.12
1053.827	627.12
1058.915	604.12
1063.998	621.12
1069.075	613.12
1074.147	608.12
1079.214	609.12
1084.276	614.12
1089.333	604.12
1094.385	599.12
1099.431	590.12
1104.472	586.12
1109.509	565.12
1114.54	545.12
1119.565	550.12
1124.586	530.12
1129.602	530.12
1134.613	530.12
1139.618	528.12
1144.619	535.12
1149.614	545.12
1154.604	546.12
1159.589	555.12
1164.57	559.12
1169.545	556.12
1174.515	562.12
1179.48	552.12
1184.44	556.12
1189.395	553.12
1194.345	553.12
1199.29	547.12
1204.23	554.12
1209.165	560.12
1214.095	551.12
1219.021	554.12
1223.941	564.12
1228.856	571.12
1233.766	565.12
1238.672	549.12
1243.572	550.12
1248.467	531.12
1253.358	519.12
1258.244	510.12
1263.124	497.12
1268	491.12
1272.871	480.12
1277.737	474.12
1282.599	479.12
1287.455	480.12
1292.306	481.12
1297.153	491.12
1301.995	488.12
1306.832	500.12
1311.664	494.12
1316.491	493.12
1321.314	493.12
1326.132	486.12
1330.945	494.12
1335.753	479.12
1340.556	472.12
1345.354	482.12
1350.148	473.12
1354.937	465.12
1359.722	482.12
1364.501	472.12
1369.276	471.12
1374.046	468.12
1378.811	465.12
1383.572	469.12
1388.327	459.12
1393.079	460.12
1397.825	449.12
1402.567	434.12
1407.304	429.12
1412.036	425.12
1416.764	420.12
1421.487	430.12
1426.205	414.12
1430.919	428.12
1435.628	435.12
1440.333	438.12
1445.032	444.12
1449.727	440.12
1454.418	454.12
1459.104	450.12
1463.785	449.12
1468.462	443.12
1473.134	446.12
1477.802	444.12
1482.465	448.12
1487.123	451.12
1491.777	452.12
1496.426	462.12
1501.071	466.12
1505.711	474.12
1510.347	474.12
1514.978	486.12
1519.604	491.12
1524.226	495.12
1528.844	466.12
1533.457	467.12
1538.065	458.12
1542.669	455.12
1547.269	434.12
1551.864	440.12
1556.454	452.12
1561.041	449.12
1565.622	447.12
1570.199	418.12
1574.772	418.12
1579.34	416.12
1583.904	425.12
1588.464	404.12
1593.019	414.12
1597.569	417.12
1602.115	406.12
1606.657	398.12
1611.195	388.12
1615.728	384.12
1620.256	399.12
1624.78	384.12
1629.3	384.12
1633.816	376.12
1638.327	392.12
1642.834	388.12
1647.336	389.12
1651.834	412.12
1656.328	389.12
1660.817	403.12
1665.302	401.12
1669.783	406.12
1674.259	413.12
1678.732	400.12
1683.199	404.12
1687.663	404.12
1692.122	403.12
1696.577	404.12
1701.028	404.12
1705.474	395.12
1709.917	406.12
1714.355	399.12
1718.788	393.12
1723.218	378.12
1727.643	381.12
1732.064	376.12
1736.481	362.12
1740.893	355.12
1745.301	352.12
1749.705	343.12
1754.105	332.12
1758.501	331.12
1762.893	324.12
1767.28	315.12
1771.663	318.12
1776.042	309.12
1780.417	324.12
1784.787	317.12
1789.154	337.12
1793.516	342.12
1797.874	340.12
1802.228	335.12
1806.578	341.12
1810.924	342.12
1815.266	325.12
1819.603	321.12
1823.937	314.12
1828.266	293.12
1832.591	290.12
1836.913	300.12
1841.23	293.12
1845.543	298.12
1849.852	295.12
1854.156	284.12
1858.457	286.12
1862.754	289.12
1867.047	291.12
1871.335	288.12
1875.62	310.12
1879.9	287.12
1884.177	301.12
1888.449	297.12
1892.718	291.12
1896.982	292.12
1901.243	295.12
1905.499	284.12
1909.752	307.12
1914	304.12
1918.245	307.12
1922.485	301.12
1926.722	305.12
1930.954	306.12
1935.183	316.12
1939.408	318.12
1943.628	318.12
1947.845	316.12
1952.058	311.12
1956.267	302.12
1960.472	295.12
1964.673	285.12
1968.87	271.12
1973.063	277.12
1977.252	263.12
1981.438	265.12
1985.619	255.12
1989.797	238.12
1993.971	244.12
1998.14	242.12
2002.306	249.12
2006.469	248.12
2010.627	251.12
2014.781	241.12
2018.932	236.12
2023.078	241.12
2027.221	236.12
2031.36	224.12
2035.495	226.12
2039.627	227.12
2043.754	220.12
2047.878	216.12
2051.998	224.12
2056.114	225.12
2060.226	215.12
2064.334	221.12
2068.439	225.12
2072.54	231.12
2076.637	235.12
2080.73	240.12
2084.82	234.12
2088.906	243.12
2092.988	242.12
2097.066	236.12
2101.14	237.12
2105.211	231.12
2109.278	221.12
2113.342	228.12
2117.401	225.12
2121.457	215.12
2125.509	209.12
2129.558	213.12
2133.602	203.12
2137.643	205.12
2141.681	210.12
2145.714	201.12
2149.744	187.12
2153.77	192.12
2157.793	190.12
2161.812	179.12
2165.827	186.12
2169.838	176.12
2173.846	181.12
2177.851	182.12
2181.851	173.12
2185.848	170.12
2189.841	183.12
2193.831	167.12
2197.817	168.12
2201.799	166.12
2205.778	168.12
2209.753	162.12
2213.725	164.12
2217.693	165.12
2221.657	170.12
2225.618	162.12
2229.575	161.12
2233.529	169.12
2237.479	164.12
2241.425	167.12
2245.368	166.12
2249.307	164.12
2253.243	154.12
2257.175	155.12
2261.104	155.12
2265.029	150.12
2268.95	146.12
2272.868	153.12
2276.783	140.12
2280.694	144.12
2284.601	138.12
2288.505	142.12
2292.405	137.12
2296.302	135.12
2300.195	129.12
2304.085	130.12
2307.971	132.12
2311.854	127.12
2315.734	131.12
2319.609	120.12
2323.482	129.12
2327.351	149.12
2331.216	163.12
2335.078	168.12
2338.937	143.12
2342.792	123.12
2346.643	111.12
2350.492	114.12
2354.336	112.12
2358.178	110.12
2362.015	113.12
2365.85	112.12
2369.681	112.12
2373.508	114.12
2377.333	111.12
2381.153	105.12
2384.971	109.12
2388.785	109.12
2392.595	104.12
2396.402	105.12
2400.206	105.12
2404.007	101.12
2407.804	102.12
2411.597	101.12
2415.388	107.12
2419.174	98.12
2422.958	99.12
2426.738	102.12
2430.515	96.12
2434.289	97.12
2438.059	97.12
2441.825	95.12
2445.589	99.12
2449.349	90.12
2453.106	86.12
2456.859	95.12
2460.61	94.12
2464.356	73.12
2468.1	86.12
2471.84	83.12
2475.577	85.12
2479.311	90.12
2483.041	86.12
2486.768	76.12
2490.492	84.12
2494.213	81.12
2497.93	83.12
2501.644	82.12
2505.355	73.12
2509.062	84.12
2512.766	86.12
2516.467	81.12
2520.165	79.12
2523.859	79.12
2527.551	74.12
2531.239	84.12
2534.923	76.12
2538.605	80.12
2542.283	76.12
2545.958	81.12
2549.63	86.12
2553.299	76.12
2556.964	75.12
2560.626	83.12
2564.285	74.12
2567.941	79.12
2571.594	73.12
2575.243	70.12
2578.89	85.12
2582.533	77.12
2586.173	75.12
2589.809	71.12
2593.443	69.12
2597.073	70.12
2600.701	77.12
2604.325	75.12
2607.946	66.12
2611.564	57.12
2615.178	69.12
2618.79	59.12
2622.398	60.12
2626.004	55.12
2629.606	58.12
2633.205	62.12
2636.801	55.12
2640.394	57.12
2643.983	53.12
2647.57	48.12
2651.153	43.12
2654.734	51.12
2658.311	45.12
2661.885	40.12
2665.456	49.12
2669.025	38.12
2672.589	44.12
2676.151	41.12
2679.71	32.12
2683.266	35.12
2686.819	35.12
2690.368	39.12
2693.915	38.12
2697.458	28.12
2700.999	29.12
2704.536	27.12
2708.071	30.12
2711.602	24.12
2715.13	25.12
2718.656	33.12
2722.178	18.12
2725.697	17.12
2729.214	27.12
2732.727	37.12
2736.237	31.12
2739.744	21.12
2743.249	28.12
2746.75	31.12
2750.248	28.12
2753.743	28.12
2757.236	34.12
2760.725	28.12
2764.211	20.12
2767.695	37.12
2771.175	34.12
2774.652	22.12
2778.127	30.12
2781.598	21.12
2785.067	20.12
2788.532	25.12
2791.995	18.12
2795.455	24.12
2798.911	28.12
2802.365	18.12
2805.816	24.12
2809.264	14.12
2812.709	21.12
2816.151	20.12
2819.59	31.12
2823.026	18.12
2826.46	30.12
2829.89	14.12
2833.318	19.12
2836.742	19.12
2840.164	22.12
2843.583	16.12
2846.999	19.12
2850.412	11.12
2853.822	11.12
2857.229	14.12
2860.634	17.12
2864.035	14.12
2867.434	19.12
2870.83	15.12
2874.223	8.12
2877.613	5.12
2881	7.12
2884.385	3.12
2887.766	7.12
2891.145	1.12
2894.521	7.12
2897.894	5.12
2901.264	2.12
2904.631	3.12
2907.996	-4.88
2911.358	2.12
2914.717	0.12
2918.073	-2.88
2921.426	-1.88
2924.777	-8.88
2928.124	-8.88
2931.469	-4.88
2934.811	-4.88
2938.15	-7.88
2941.487	-3.88
2944.821	-10.88
2948.152	-17.88
2951.48	-11.88
2954.805	-5.88
2958.128	-8.88
2961.447	-12.88
2964.765	-11.88
2968.079	-14.88
2971.39	-16.88
2974.699	-15.88
2978.005	-13.88
2981.308	-13.88
2984.609	-20.88
2987.907	-12.88
2991.202	-17.88
2994.494	-9.88
2997.784	-11.88
3001.07	-9.88
3004.355	-13.88
3007.636	-18.88
3010.915	-19.88
3014.191	-20.88
3017.464	-15.88
3020.734	-11.88
3024.002	-25.88
3027.267	-20.88
3030.53	-23.88
3033.789	-20.88
3037.046	-28.88
3040.301	-30.88
3043.552	-35.88
3046.801	-29.88
3050.048	-30.88
3053.291	-29.88
3056.532	-33.88
3059.771	-25.88
3063.006	-32.88
3066.239	-34.88
3069.469	-24.88
3072.697	-34.88
3075.922	-36.88
3079.144	-32.88
3082.364	-30.88
3085.581	-30.88
3088.795	-37.88
3092.007	-39.88
3095.216	-31.88
3098.423	-32.88
3101.627	-34.88
3104.828	-35.88
3108.026	-35.88
3111.222	-37.88
3114.416	-31.88
3117.607	-32.88
3120.795	-30.88
3123.98	-33.88
3127.163	-33.88
3130.344	-33.88
3133.521	-37.88
3136.696	-34.88
3139.869	-36.88
3143.039	-43.88
3146.206	-41.88
3149.371	-35.88
3152.533	-44.88
3155.693	-42.88
3158.85	-37.88
3162.005	-43.88
3165.157	-40.88
3168.306	-39.88
3171.453	-39.88
3174.597	-40.88
3177.739	-42.88
3180.878	-45.88
3184.014	-45.88
3187.149	-41.88
3190.28	-42.88
3193.409	-44.88
3196.536	-51.88
3199.659	-38.88
3202.781	-50.88
3205.9	-46.88
3209.016	-56.88
3212.13	-47.88
3215.241	-48.88
3218.35	-46.88
3221.456	-43.88
3224.56	-50.88
3227.661	-48.88
3230.76	-47.88
3233.856	-56.88
3236.95	-46.88
3240.041	-49.88
3243.13	-50.88
3246.216	-49.88
3249.3	-49.88
3252.382	-48.88
3255.46	-43.88
3258.537	-22.88
3261.611	-57.88
3264.682	-45.88
3267.751	-46.88
3270.818	-51.88
3273.882	-51.88
3276.943	-52.88
3280.002	-47.88
3283.059	-53.88
3286.113	-50.88
3289.165	-49.88
3292.214	-54.88
3295.261	-47.88
3298.306	-49.88
3301.348	-50.88
3304.387	-47.88
3307.425	-54.88
3310.459	-53.88
3313.492	-50.88
3316.521	-58.88
3319.549	-57.88
3322.574	-61.88
3325.597	-56.88
3328.617	-53.88
3331.635	-57.88
3334.65	-52.88
3337.663	-67.88
3340.674	-55.88
3343.682	-56.88
3346.688	-60.88
3349.691	-58.88
3352.692	-58.88
3355.691	-58.88
3358.687	-56.88
3361.681	-59.88
3364.673	-59.88
3367.662	-56.88
3370.649	-57.88
3373.633	-54.88
3376.615	-60.88
3379.595	-62.88
3382.572	-59.88
3385.547	-63.88
3388.52	-56.88
3391.49	-55.88
3394.458	-64.88
3397.424	-59.88
3400.387	-61.88
3403.348	-57.88
3406.307	-56.88
3409.263	-59.88
3412.217	-59.88
3415.168	-65.88
3418.118	-62.88
3421.065	-65.88
3424.009	-58.88
3426.951	-59.88
3429.891	-57.88
3432.829	-65.88
3435.764	-60.88
3438.697	-57.88
3441.628	-60.88
3444.557	-56.88
3447.483	-65.88
3450.407	-72.88
3453.328	-61.88
3456.247	-61.88
3459.164	-61.88
3462.079	-64.88
3464.991	-64.88
3467.902	-66.88
3470.809	-66.88
3473.715	-68.88
3476.618	-72.88
3479.519	-61.88
3482.418	-68.88
3485.315	-64.88
3488.209	-70.88
3491.101	-66.88
3493.99	-65.88
3496.878	-66.88
3499.763	-67.88
3502.646	-60.88
3505.527	-69.88
3508.405	-67.88
3511.281	-67.88
3514.155	-60.88
3517.027	-63.88
3519.897	-60.88
3522.764	-62.88
3525.629	-66.88
3528.492	-66.88
3531.352	-67.88
3534.211	-69.88
3537.067	-61.88
3539.921	-61.88
3542.773	-70.88
3545.622	-65.88
3548.469	-69.88
3551.315	-62.88
3554.157	-65.88
3556.998	-68.88
3559.837	-64.88
3562.673	-68.88
3565.507	-65.88
3568.339	-69.88
3571.169	-70.88
3573.996	-69.88
3576.822	-63.88
3579.645	-76.88
3582.466	-64.88
3585.285	-70.88
3588.101	-71.88
3590.916	-75.88
3593.728	-68.88
3596.538	-71.88
3599.346	-73.88
3602.152	-70.88
3604.956	-65.88
3607.757	-72.88
3610.556	-67.88
3613.354	-73.88
3616.149	-75.88
3618.942	-69.88
3621.732	-76.88
3624.521	-71.88
3627.307	-75.88
3630.092	-70.88
3632.874	-73.88
3635.654	-71.88
3638.432	-71.88
3641.208	-74.88
3643.982	-69.88
3646.753	-71.88
3649.523	-75.88
3652.29	-77.88
3655.055	-74.88
3657.818	-76.88
3660.579	-74.88
3663.338	-73.88
3666.095	-74.88
3668.849	-75.88
3671.602	-74.88
3674.352	-72.88
3677.101	-68.88
3679.847	-78.88
3682.591	-71.88
3685.333	-72.88
3688.073	-75.88
3690.811	-67.88
3693.547	-66.88
3696.281	-71.88
3699.013	-69.88
3701.742	-71.88
3704.47	-75.88
3707.195	-68.88
3709.919	-73.88
3712.64	-74.88
3715.359	-67.88
3718.076	-66.88
3720.792	-70.88
3723.505	-72.88
3726.216	-71.88
3728.925	-68.88
3731.632	-74.88
3734.336	-69.88
3737.039	-77.88
3739.74	-71.88
3742.439	-67.88
3745.136	-75.88
3747.83	-72.88
3750.523	-70.88
3753.213	-85.88
3755.902	-75.88
3758.589	-73.88
3761.273	-81.88
3763.956	-75.88
3766.636	-69.88
3769.315	-72.88
3771.991	-76.88
3774.665	-69.88
3777.338	-71.88
3780.008	-78.88
3782.677	-72.88
3785.343	-80.88
3788.007	-81.88
3790.67	-74.88
3793.33	-76.88
3795.989	-70.88
3798.645	-81.88
3801.299	-78.88
3803.952	-77.88
3806.602	-82.88
3809.251	-80.88
3811.897	-77.88
3814.542	-73.88
3817.184	-74.88
3819.825	-76.88
3822.463	-75.88
3825.1	-79.88
3827.735	-74.88
3830.367	-82.88
3832.998	-75.88
3835.627	-69.88
3838.253	-73.88
3840.878	-73.88
3843.501	-74.88
3846.122	-75.88
3848.741	-71.88
3851.358	-69.88
3853.973	-71.88
3856.586	-76.88
3859.197	-69.88
3861.806	-72.88
3864.414	-71.88
3867.019	-67.88
3869.622	-63.88
3872.224	-55.88
3874.823	-32.88
3877.421	-17.88
3880.016	13.12
3882.61	45.12
3885.202	66.12
3887.792	32.12
3890.38	-8.88
3892.966	-37.88
3895.55	-58.88
3898.132	-72.88
3900.713	-74.88
3903.291	-71.88
3905.868	-75.88
3908.442	-75.88
3911.015	-69.88
3913.586	-75.88
3916.155	-72.88
3918.722	-69.88
3921.287	-74.88
3923.85	-76.88
3926.411	-71.88
3928.971	-72.88
3931.528	-67.88
3934.084	-75.88
3936.638	-73.88
3939.19	-77.88
3941.74	-74.88
3944.288	-74.88
3946.834	-69.88
3949.378	-77.88
3951.921	-67.88
3954.462	-72.88
3957	-71.88
3959.537	-67.88
3962.072	-65.88
3964.606	-68.88
3967.137	-68.88
3969.667	-74.88
3972.194	-76.88
3974.72	-78.88
3977.244	-71.88
3979.766	-73.88
3982.286	-67.88
3984.805	-73.88
3987.321	-72.88
3989.836	-73.88
3992.349	-70.88
3994.86	-78.88
3997.369	-74.88
3999.877	-65.88
4002.382	-70.88
4004.886	-72.88
4007.388	-68.88
4009.888	-74.88
4012.386	-65.88
4014.883	-72.88
4017.377	-66.88
4019.87	-71.88
4022.361	-75.88
4024.85	-69.88
4027.338	-67.88
4029.823	-71.88
4032.307	-70.88
4034.789	-80.88
4037.269	-68.88
4039.747	-74.88
4042.224	-72.88
4044.699	-72.88
4047.172	-74.88
4049.643	-72.88
4052.112	-73.88
4054.58	-78.88
4057.046	-72.88
4059.51	-76.88
4061.972	-77.88
4064.432	-71.88
4066.891	-79.88
4069.348	-70.88
4071.803	-76.88
4074.256	-72.88
4076.708	-75.88
4079.158	-73.88
4081.606	-72.88
4084.052	-74.88
4086.497	-76.88
4088.939	-80.88
4091.38	-78.88
4093.819	-74.88
4096.257	-73.88
4098.693	-75.88
4101.127	-76.88
4103.559	-74.88
4105.989	46.12
4108.418	46.12
4110.845	43.12
4113.27	28.12
4115.694	30.12
4118.115	29.12
4120.535	-73.88
4122.954	-71.88
4125.37	-77.88
4127.785	-76.88
4130.198	-75.88
4132.609	-74.88
4135.019	-77.88
4137.427	-73.88
4139.833	-74.88
4142.237	-78.88