File: Data/Raman/2017-08-29 - Alluminum 2/Aug 29 2017 - Aluminum 2/water 3_RamanShift_3.txt
Data from water 3_RamanShift_3.txt Node

Date: Tue Aug 29 12:28:37 IDT 2017
User: aro
Spectrometer: QEPB0276
Trigger mode: 0
Integration Time (sec): 3.000000E1
Scans to average: 1
Electric dark correction enabled: true
Nonlinearity correction enabled: false
Boxcar width: 0
XAxis mode: Raman Shifts
Number of Pixels in Spectrum: 1044
>>>>>Begin Spectral Data<<<<<
160.701	32.62
166.742	40.62
172.777	64.62
178.805	165.62
184.826	398.62
190.841	805.62
196.849	1243.62
202.85	1587.62
208.845	1723.62
214.833	1718.62
220.815	1698.62
226.789	1724.62
232.758	1735.62
238.719	1760.62
244.674	1777.62
250.623	1810.62
256.565	1804.62
262.5	1845.62
268.429	1856.62
274.351	1887.62
280.267	1914.62
286.176	1943.62
292.079	1971.62
297.975	2004.62
303.865	2042.62
309.748	2057.62
315.625	2101.62
321.495	2121.62
327.359	2123.62
333.217	2143.62
339.068	2158.62
344.912	2203.62
350.751	2198.62
356.583	2248.62
362.408	2265.62
368.227	2356.62
374.04	2463.62
379.847	2606.62
385.647	2715.62
391.44	2608.62
397.228	2501.62
403.009	2533.62
408.784	2765.62
414.553	3316.62
420.315	3922.62
426.071	3958.62
431.821	3301.62
437.565	2738.62
443.302	2555.62
449.033	2458.62
454.758	2405.62
460.477	2366.62
466.189	2297.62
471.896	2264.62
477.596	2208.62
483.29	2193.62
488.978	2210.62
494.66	2171.62
500.335	2040.62
506.005	1849.62
511.668	1651.62
517.325	1456.62
522.977	1304.62
528.622	1205.62
534.261	1143.62
539.894	1068.62
545.521	1034.62
551.141	991.62
556.756	988.62
562.365	954.62
567.968	948.62
573.565	957.62
579.155	957.62
584.74	949.62
590.319	943.62
595.892	916.62
601.459	925.62
607.02	944.62
612.575	919.62
618.124	905.62
623.667	873.62
629.204	873.62
634.735	929.62
640.261	1066.62
645.781	1267.62
651.294	1345.62
656.802	1178.62
662.304	939.62
667.8	832.62
673.29	784.62
678.775	754.62
684.254	736.62
689.726	728.62
695.193	724.62
700.655	713.62
706.11	711.62
711.56	703.62
717.004	698.62
722.442	704.62
727.874	713.62
733.301	706.62
738.722	742.62
744.137	786.62
749.547	830.62
754.951	873.62
760.349	853.62
765.741	820.62
771.128	798.62
776.509	806.62
781.885	836.62
787.254	874.62
792.618	895.62
797.977	894.62
803.33	888.62
808.677	877.62
814.019	874.62
819.355	845.62
824.686	831.62
830.011	823.62
835.33	800.62
840.644	790.62
845.952	762.62
851.255	740.62
856.552	715.62
861.844	690.62
867.13	663.62
872.41	646.62
877.686	642.62
882.955	625.62
888.219	613.62
893.478	608.62
898.731	601.62
903.979	590.62
909.221	590.62
914.458	594.62
919.69	589.62
924.916	598.62
930.136	589.62
935.351	589.62
940.561	590.62
945.766	591.62
950.965	587.62
956.158	580.62
961.347	567.62
966.529	579.62
971.707	578.62
976.879	555.62
982.046	552.62
987.208	554.62
992.364	549.62
997.515	566.62
1002.66	572.62
1007.801	565.62
1012.936	565.62
1018.066	568.62
1023.19	590.62
1028.309	589.62
1033.423	608.62
1038.532	620.62
1043.636	639.62
1048.734	623.62
1053.827	619.62
1058.915	613.62
1063.998	629.62
1069.075	612.62
1074.147	615.62
1079.214	623.62
1084.276	605.62
1089.333	599.62
1094.385	599.62
1099.431	598.62
1104.472	583.62
1109.509	574.62
1114.54	555.62
1119.565	553.62
1124.586	537.62
1129.602	532.62
1134.613	538.62
1139.618	526.62
1144.619	531.62
1149.614	537.62
1154.604	547.62
1159.589	548.62
1164.57	565.62
1169.545	568.62
1174.515	568.62
1179.48	565.62
1184.44	567.62
1189.395	550.62
1194.345	558.62
1199.29	558.62
1204.23	551.62
1209.165	553.62
1214.095	561.62
1219.021	565.62
1223.941	559.62
1228.856	580.62
1233.766	574.62
1238.672	552.62
1243.572	554.62
1248.467	555.62
1253.358	539.62
1258.244	525.62
1263.124	500.62
1268	501.62
1272.871	492.62
1277.737	478.62
1282.599	489.62
1287.455	484.62
1292.306	485.62
1297.153	508.62
1301.995	489.62
1306.832	497.62
1311.664	501.62
1316.491	496.62
1321.314	494.62
1326.132	496.62
1330.945	498.62
1335.753	488.62
1340.556	488.62
1345.354	486.62
1350.148	479.62
1354.937	483.62
1359.722	478.62
1364.501	483.62
1369.276	479.62
1374.046	479.62
1378.811	472.62
1383.572	475.62
1388.327	471.62
1393.079	472.62
1397.825	456.62
1402.567	442.62
1407.304	433.62
1412.036	425.62
1416.764	427.62
1421.487	428.62
1426.205	428.62
1430.919	421.62
1435.628	434.62
1440.333	443.62
1445.032	448.62
1449.727	443.62
1454.418	453.62
1459.104	444.62
1463.785	443.62
1468.462	447.62
1473.134	454.62
1477.802	451.62
1482.465	454.62
1487.123	452.62
1491.777	451.62
1496.426	472.62
1501.071	459.62
1505.711	473.62
1510.347	470.62
1514.978	490.62
1519.604	478.62
1524.226	492.62
1528.844	486.62
1533.457	473.62
1538.065	460.62
1542.669	456.62
1547.269	446.62
1551.864	454.62
1556.454	456.62
1561.041	460.62
1565.622	454.62
1570.199	429.62
1574.772	419.62
1579.34	426.62
1583.904	424.62
1588.464	416.62
1593.019	418.62
1597.569	417.62
1602.115	404.62
1606.657	407.62
1611.195	388.62
1615.728	391.62
1620.256	392.62
1624.78	384.62
1629.3	384.62
1633.816	380.62
1638.327	394.62
1642.834	398.62
1647.336	396.62
1651.834	397.62
1656.328	410.62
1660.817	404.62
1665.302	412.62
1669.783	408.62
1674.259	409.62
1678.732	400.62
1683.199	409.62
1687.663	410.62
1692.122	395.62
1696.577	416.62
1701.028	408.62
1705.474	405.62
1709.917	410.62
1714.355	409.62
1718.788	396.62
1723.218	402.62
1727.643	376.62
1732.064	382.62
1736.481	368.62
1740.893	354.62
1745.301	347.62
1749.705	342.62
1754.105	331.62
1758.501	333.62
1762.893	327.62
1767.28	322.62
1771.663	324.62
1776.042	326.62
1780.417	334.62
1784.787	318.62
1789.154	338.62
1793.516	344.62
1797.874	344.62
1802.228	338.62
1806.578	337.62
1810.924	335.62
1815.266	328.62
1819.603	317.62
1823.937	308.62
1828.266	297.62
1832.591	298.62
1836.913	296.62
1841.23	290.62
1845.543	286.62
1849.852	293.62
1854.156	296.62
1858.457	293.62
1862.754	292.62
1867.047	300.62
1871.335	300.62
1875.62	302.62
1879.9	298.62
1884.177	303.62
1888.449	309.62
1892.718	304.62
1896.982	305.62
1901.243	300.62
1905.499	297.62
1909.752	296.62
1914	304.62
1918.245	306.62
1922.485	310.62
1926.722	309.62
1930.954	316.62
1935.183	315.62
1939.408	313.62
1943.628	314.62
1947.845	309.62
1952.058	303.62
1956.267	307.62
1960.472	293.62
1964.673	291.62
1968.87	282.62
1973.063	270.62
1977.252	266.62
1981.438	253.62
1985.619	267.62
1989.797	250.62
1993.971	248.62
1998.14	250.62
2002.306	248.62
2006.469	244.62
2010.627	246.62
2014.781	248.62
2018.932	245.62
2023.078	235.62
2027.221	238.62
2031.36	236.62
2035.495	231.62
2039.627	228.62
2043.754	228.62
2047.878	226.62
2051.998	223.62
2056.114	229.62
2060.226	229.62
2064.334	231.62
2068.439	235.62
2072.54	223.62
2076.637	235.62
2080.73	238.62
2084.82	240.62
2088.906	249.62
2092.988	246.62
2097.066	241.62
2101.14	227.62
2105.211	239.62
2109.278	237.62
2113.342	225.62
2117.401	230.62
2121.457	221.62
2125.509	219.62
2129.558	217.62
2133.602	214.62
2137.643	202.62
2141.681	197.62
2145.714	204.62
2149.744	195.62
2153.77	200.62
2157.793	197.62
2161.812	187.62
2165.827	189.62
2169.838	175.62
2173.846	183.62
2177.851	189.62
2181.851	167.62
2185.848	181.62
2189.841	170.62
2193.831	170.62
2197.817	172.62
2201.799	170.62
2205.778	172.62
2209.753	157.62
2213.725	170.62
2217.693	166.62
2221.657	168.62
2225.618	169.62
2229.575	162.62
2233.529	164.62
2237.479	169.62
2241.425	167.62
2245.368	160.62
2249.307	158.62
2253.243	155.62
2257.175	155.62
2261.104	159.62
2265.029	154.62
2268.95	139.62
2272.868	145.62
2276.783	145.62
2280.694	135.62
2284.601	143.62
2288.505	146.62
2292.405	137.62
2296.302	136.62
2300.195	128.62
2304.085	137.62
2307.971	135.62
2311.854	125.62
2315.734	128.62
2319.609	125.62
2323.482	124.62
2327.351	143.62
2331.216	164.62
2335.078	168.62
2338.937	148.62
2342.792	120.62
2346.643	113.62
2350.492	117.62
2354.336	112.62
2358.178	114.62
2362.015	113.62
2365.85	113.62
2369.681	112.62
2373.508	112.62
2377.333	112.62
2381.153	117.62
2384.971	111.62
2388.785	109.62
2392.595	109.62
2396.402	122.62
2400.206	108.62
2404.007	103.62
2407.804	102.62
2411.597	110.62
2415.388	115.62
2419.174	105.62
2422.958	102.62
2426.738	104.62
2430.515	106.62
2434.289	100.62
2438.059	101.62
2441.825	94.62
2445.589	98.62
2449.349	91.62
2453.106	90.62
2456.859	92.62
2460.61	91.62
2464.356	88.62
2468.1	87.62
2471.84	87.62
2475.577	91.62
2479.311	88.62
2483.041	89.62
2486.768	84.62
2490.492	83.62
2494.213	82.62
2497.93	82.62
2501.644	85.62
2505.355	70.62
2509.062	80.62
2512.766	84.62
2516.467	80.62
2520.165	87.62
2523.859	75.62
2527.551	75.62
2531.239	80.62
2534.923	84.62
2538.605	78.62
2542.283	81.62
2545.958	78.62
2549.63	83.62
2553.299	74.62
2556.964	78.62
2560.626	71.62
2564.285	79.62
2567.941	77.62
2571.594	74.62
2575.243	64.62
2578.89	74.62
2582.533	70.62
2586.173	69.62
2589.809	74.62
2593.443	69.62
2597.073	64.62
2600.701	75.62
2604.325	65.62
2607.946	66.62
2611.564	74.62
2615.178	61.62
2618.79	60.62
2622.398	58.62
2626.004	55.62
2629.606	56.62
2633.205	58.62
2636.801	60.62
2640.394	55.62
2643.983	52.62
2647.57	50.62
2651.153	48.62
2654.734	49.62
2658.311	47.62
2661.885	44.62
2665.456	42.62
2669.025	44.62
2672.589	50.62
2676.151	41.62
2679.71	36.62
2683.266	42.62
2686.819	41.62
2690.368	37.62
2693.915	34.62
2697.458	28.62
2700.999	33.62
2704.536	38.62
2708.071	27.62
2711.602	29.62
2715.13	30.62
2718.656	29.62
2722.178	28.62
2725.697	23.62
2729.214	32.62
2732.727	34.62
2736.237	28.62
2739.744	28.62
2743.249	27.62
2746.75	32.62
2750.248	31.62
2753.743	28.62
2757.236	32.62
2760.725	25.62
2764.211	19.62
2767.695	30.62
2771.175	28.62
2774.652	25.62
2778.127	26.62
2781.598	21.62
2785.067	17.62
2788.532	23.62
2791.995	14.62
2795.455	22.62
2798.911	24.62
2802.365	15.62
2805.816	19.62
2809.264	9.62
2812.709	17.62
2816.151	22.62
2819.59	25.62
2823.026	17.62
2826.46	22.62
2829.89	15.62
2833.318	16.62
2836.742	24.62
2840.164	18.62
2843.583	18.62
2846.999	17.62
2850.412	15.62
2853.822	8.62
2857.229	20.62
2860.634	11.62
2864.035	14.62
2867.434	15.62
2870.83	18.62
2874.223	10.62
2877.613	6.62
2881	6.62
2884.385	2.62
2887.766	4.62
2891.145	0.62
2894.521	0.62
2897.894	-2.38
2901.264	1.62
2904.631	-1.38
2907.996	-7.38
2911.358	0.62
2914.717	-3.38
2918.073	-1.38
2921.426	-2.38
2924.777	-8.38
2928.124	-9.38
2931.469	-5.38
2934.811	-7.38
2938.15	-6.38
2941.487	-6.38
2944.821	-9.38
2948.152	-17.38
2951.48	-10.38
2954.805	-12.38
2958.128	-11.38
2961.447	-7.38
2964.765	-13.38
2968.079	-14.38
2971.39	-9.38
2974.699	-12.38
2978.005	-6.38
2981.308	-14.38
2984.609	-18.38
2987.907	-10.38
2991.202	-15.38
2994.494	-11.38
2997.784	-13.38
3001.07	-14.38
3004.355	-13.38
3007.636	-15.38
3010.915	-17.38
3014.191	-19.38
3017.464	-18.38
3020.734	-11.38
3024.002	-27.38
3027.267	-22.38
3030.53	-29.38
3033.789	-22.38
3037.046	-23.38
3040.301	-28.38
3043.552	-35.38
3046.801	-31.38
3050.048	-31.38
3053.291	-34.38
3056.532	-34.38
3059.771	-22.38
3063.006	-39.38
3066.239	-29.38
3069.469	-27.38
3072.697	-34.38
3075.922	-34.38
3079.144	-35.38
3082.364	-30.38
3085.581	-34.38
3088.795	-32.38
3092.007	-39.38
3095.216	-32.38
3098.423	-37.38
3101.627	-29.38
3104.828	-36.38
3108.026	-26.38
3111.222	-37.38
3114.416	-29.38
3117.607	-35.38
3120.795	-26.38
3123.98	2.62
3127.163	-27.38
3130.344	-33.38
3133.521	-35.38
3136.696	-32.38
3139.869	-35.38
3143.039	-34.38
3146.206	-42.38
3149.371	-32.38
3152.533	-31.38
3155.693	-40.38
3158.85	-39.38
3162.005	-38.38
3165.157	-46.38
3168.306	-38.38
3171.453	-41.38
3174.597	-40.38
3177.739	-36.38
3180.878	-46.38
3184.014	-49.38
3187.149	-41.38
3190.28	-41.38
3193.409	-39.38
3196.536	-51.38
3199.659	-40.38
3202.781	-46.38
3205.9	-45.38
3209.016	-52.38
3212.13	-50.38
3215.241	-41.38
3218.35	-49.38
3221.456	-48.38
3224.56	-46.38
3227.661	-46.38
3230.76	-47.38
3233.856	-51.38
3236.95	-46.38
3240.041	-48.38
3243.13	-51.38
3246.216	-47.38
3249.3	-48.38
3252.382	-47.38
3255.46	-47.38
3258.537	-23.38
3261.611	-51.38
3264.682	-51.38
3267.751	-47.38
3270.818	-53.38
3273.882	-54.38
3276.943	-52.38
3280.002	-47.38
3283.059	-55.38
3286.113	-52.38
3289.165	-48.38
3292.214	-55.38
3295.261	-51.38
3298.306	-54.38
3301.348	-59.38
3304.387	-54.38
3307.425	-56.38
3310.459	-59.38
3313.492	-56.38
3316.521	-64.38
3319.549	-57.38
3322.574	-61.38
3325.597	-63.38
3328.617	-57.38
3331.635	-61.38
3334.65	-57.38
3337.663	-62.38
3340.674	-58.38
3343.682	-60.38
3346.688	-59.38
3349.691	-59.38
3352.692	-61.38
3355.691	-59.38
3358.687	-64.38
3361.681	-60.38
3364.673	-63.38
3367.662	-60.38
3370.649	-63.38
3373.633	-62.38
3376.615	-62.38
3379.595	-57.38
3382.572	-54.38
3385.547	-60.38
3388.52	-60.38
3391.49	-61.38
3394.458	-67.38
3397.424	-58.38
3400.387	-60.38
3403.348	-59.38
3406.307	-56.38
3409.263	-56.38
3412.217	-57.38
3415.168	-64.38
3418.118	-62.38
3421.065	-59.38
3424.009	-59.38
3426.951	-62.38
3429.891	-58.38
3432.829	-61.38
3435.764	-65.38
3438.697	-59.38
3441.628	-58.38
3444.557	-53.38
3447.483	-66.38
3450.407	-64.38
3453.328	-56.38
3456.247	-65.38
3459.164	-63.38
3462.079	-64.38
3464.991	-66.38
3467.902	-64.38
3470.809	-70.38
3473.715	-65.38
3476.618	-67.38
3479.519	-60.38
3482.418	-67.38
3485.315	-72.38
3488.209	-70.38
3491.101	-62.38
3493.99	-64.38
3496.878	-67.38
3499.763	-68.38
3502.646	-61.38
3505.527	-70.38
3508.405	-70.38
3511.281	-73.38
3514.155	-62.38
3517.027	-65.38
3519.897	-60.38
3522.764	-64.38
3525.629	-69.38
3528.492	-62.38
3531.352	-65.38
3534.211	-69.38
3537.067	-61.38
3539.921	-63.38
3542.773	-66.38
3545.622	-65.38
3548.469	-69.38
3551.315	-65.38
3554.157	-65.38
3556.998	-68.38
3559.837	-63.38
3562.673	-72.38
3565.507	-65.38
3568.339	-64.38
3571.169	-71.38
3573.996	-69.38
3576.822	-66.38
3579.645	-71.38
3582.466	-66.38
3585.285	-71.38
3588.101	-72.38
3590.916	-72.38
3593.728	-67.38
3596.538	-70.38
3599.346	-71.38
3602.152	-74.38
3604.956	-71.38
3607.757	-76.38
3610.556	-75.38
3613.354	-71.38
3616.149	-77.38
3618.942	-72.38
3621.732	-75.38
3624.521	-70.38
3627.307	-76.38
3630.092	-70.38
3632.874	-73.38
3635.654	-70.38
3638.432	-70.38
3641.208	-71.38
3643.982	-71.38
3646.753	-72.38
3649.523	-75.38
3652.29	-75.38
3655.055	-74.38
3657.818	-74.38
3660.579	-74.38
3663.338	-71.38
3666.095	-75.38
3668.849	-77.38
3671.602	-70.38
3674.352	-73.38
3677.101	-71.38
3679.847	-79.38
3682.591	-73.38
3685.333	-76.38
3688.073	-74.38
3690.811	-70.38
3693.547	-74.38
3696.281	-75.38
3699.013	-73.38
3701.742	-75.38
3704.47	-73.38
3707.195	-73.38
3709.919	-70.38
3712.64	-74.38
3715.359	-77.38
3718.076	-67.38
3720.792	-76.38
3723.505	-73.38
3726.216	-76.38
3728.925	-74.38
3731.632	-74.38
3734.336	-72.38
3737.039	-76.38
3739.74	-74.38
3742.439	-68.38
3745.136	-71.38
3747.83	-74.38
3750.523	-71.38
3753.213	-86.38
3755.902	-73.38
3758.589	-70.38
3761.273	-78.38
3763.956	-76.38
3766.636	-75.38
3769.315	-77.38
3771.991	-73.38
3774.665	-69.38
3777.338	-71.38
3780.008	-74.38
3782.677	-73.38
3785.343	-76.38
3788.007	-81.38
3790.67	-70.38
3793.33	-75.38
3795.989	-69.38
3798.645	-78.38
3801.299	-72.38
3803.952	-77.38
3806.602	-79.38
3809.251	-77.38
3811.897	-73.38
3814.542	-73.38
3817.184	-75.38
3819.825	-72.38
3822.463	-73.38
3825.1	-78.38
3827.735	-73.38
3830.367	-74.38
3832.998	-74.38
3835.627	-71.38
3838.253	-75.38
3840.878	-75.38
3843.501	-71.38
3846.122	-80.38
3848.741	-78.38
3851.358	-72.38
3853.973	-70.38
3856.586	-78.38
3859.197	-69.38
3861.806	-74.38
3864.414	-73.38
3867.019	-67.38
3869.622	-64.38
3872.224	-59.38
3874.823	-37.38
3877.421	-17.38
3880.016	20.62
3882.61	44.62
3885.202	55.62
3887.792	31.62
3890.38	-12.38
3892.966	-46.38
3895.55	-63.38
3898.132	-73.38
3900.713	-72.38
3903.291	-73.38
3905.868	-76.38
3908.442	-77.38
3911.015	-75.38
3913.586	-80.38
3916.155	-70.38
3918.722	-77.38
3921.287	-77.38
3923.85	-78.38
3926.411	-78.38
3928.971	-77.38
3931.528	-72.38
3934.084	-83.38
3936.638	-75.38
3939.19	-77.38
3941.74	-74.38
3944.288	-79.38
3946.834	-74.38
3949.378	-75.38
3951.921	-71.38
3954.462	-71.38
3957	-72.38
3959.537	-73.38
3962.072	-65.38
3964.606	-78.38
3967.137	-72.38
3969.667	-72.38
3972.194	-71.38
3974.72	-73.38
3977.244	-74.38
3979.766	-76.38
3982.286	-72.38
3984.805	-72.38
3987.321	-74.38
3989.836	-74.38
3992.349	-72.38
3994.86	-71.38
3997.369	-76.38
3999.877	-65.38
4002.382	-70.38
4004.886	-74.38
4007.388	-73.38
4009.888	-70.38
4012.386	-75.38
4014.883	-74.38
4017.377	-69.38
4019.87	-72.38
4022.361	-75.38
4024.85	-74.38
4027.338	-71.38
4029.823	-69.38
4032.307	-71.38
4034.789	-78.38
4037.269	-74.38
4039.747	-73.38
4042.224	-72.38
4044.699	-70.38
4047.172	-74.38
4049.643	-74.38
4052.112	-73.38
4054.58	-81.38
4057.046	-73.38
4059.51	-81.38
4061.972	-72.38
4064.432	-76.38
4066.891	-83.38
4069.348	-72.38
4071.803	-75.38
4074.256	-71.38
4076.708	-77.38
4079.158	-75.38
4081.606	-74.38
4084.052	-82.38
4086.497	-81.38
4088.939	-79.38
4091.38	-78.38
4093.819	-75.38
4096.257	-75.38
4098.693	-75.38
4101.127	-80.38
4103.559	-77.38
4105.989	47.62
4108.418	40.62
4110.845	40.62
4113.27	29.62
4115.694	34.62
4118.115	31.62
4120.535	-76.38
4122.954	-72.38
4125.37	-77.38
4127.785	-79.38
4130.198	-74.38
4132.609	-73.38
4135.019	-76.38
4137.427	-75.38
4139.833	-74.38
4142.237	-77.38