File: Data/Raman/2017-08-29 - Alluminum 2/Aug 29 2017 - Aluminum 2/water 4_RamanShift_2.txt
Data from water 4_RamanShift_2.txt Node

Date: Tue Aug 29 12:31:07 IDT 2017
User: aro
Spectrometer: QEPB0276
Trigger mode: 0
Integration Time (sec): 3.000000E1
Scans to average: 1
Electric dark correction enabled: true
Nonlinearity correction enabled: false
Boxcar width: 0
XAxis mode: Raman Shifts
Number of Pixels in Spectrum: 1044
>>>>>Begin Spectral Data<<<<<
160.701	33.62
166.742	37.62
172.777	75.62
178.805	160.62
184.826	392.62
190.841	791.62
196.849	1263.62
202.85	1621.62
208.845	1746.62
214.833	1759.62
220.815	1749.62
226.789	1762.62
232.758	1796.62
238.719	1795.62
244.674	1821.62
250.623	1840.62
256.565	1839.62
262.5	1852.62
268.429	1880.62
274.351	1895.62
280.267	1903.62
286.176	1932.62
292.079	1956.62
297.975	2004.62
303.865	1997.62
309.748	2057.62
315.625	2061.62
321.495	2090.62
327.359	2107.62
333.217	2123.62
339.068	2149.62
344.912	2144.62
350.751	2188.62
356.583	2218.62
362.408	2245.62
368.227	2312.62
374.04	2426.62
379.847	2624.62
385.647	2687.62
391.44	2613.62
397.228	2453.62
403.009	2506.62
408.784	2735.62
414.553	3323.62
420.315	3974.62
426.071	3982.62
431.821	3317.62
437.565	2725.62
443.302	2534.62
449.033	2446.62
454.758	2384.62
460.477	2334.62
466.189	2277.62
471.896	2215.62
477.596	2193.62
483.29	2154.62
488.978	2173.62
494.66	2125.62
500.335	2001.62
506.005	1848.62
511.668	1626.62
517.325	1445.62
522.977	1290.62
528.622	1194.62
534.261	1109.62
539.894	1055.62
545.521	1010.62
551.141	983.62
556.756	960.62
562.365	943.62
567.968	924.62
573.565	940.62
579.155	944.62
584.74	940.62
590.319	930.62
595.892	909.62
601.459	918.62
607.02	926.62
612.575	898.62
618.124	888.62
623.667	863.62
629.204	859.62
634.735	909.62
640.261	1045.62
645.781	1278.62
651.294	1366.62
656.802	1201.62
662.304	943.62
667.8	812.62
673.29	773.62
678.775	744.62
684.254	723.62
689.726	718.62
695.193	714.62
700.655	699.62
706.11	686.62
711.56	702.62
717.004	681.62
722.442	692.62
727.874	690.62
733.301	709.62
738.722	719.62
744.137	754.62
749.547	826.62
754.951	861.62
760.349	850.62
765.741	786.62
771.128	788.62
776.509	794.62
781.885	820.62
787.254	848.62
792.618	870.62
797.977	869.62
803.33	867.62
808.677	863.62
814.019	835.62
819.355	828.62
824.686	819.62
830.011	791.62
835.33	783.62
840.644	755.62
845.952	740.62
851.255	715.62
856.552	688.62
861.844	655.62
867.13	645.62
872.41	632.62
877.686	607.62
882.955	582.62
888.219	599.62
893.478	577.62
898.731	575.62
903.979	581.62
909.221	557.62
914.458	563.62
919.69	577.62
924.916	575.62
930.136	562.62
935.351	571.62
940.561	562.62
945.766	559.62
950.965	566.62
956.158	564.62
961.347	563.62
966.529	537.62
971.707	536.62
976.879	527.62
982.046	527.62
987.208	524.62
992.364	523.62
997.515	538.62
1002.66	531.62
1007.801	547.62
1012.936	553.62
1018.066	548.62
1023.19	568.62
1028.309	570.62
1033.423	582.62
1038.532	591.62
1043.636	588.62
1048.734	596.62
1053.827	587.62
1058.915	585.62
1063.998	594.62
1069.075	589.62
1074.147	584.62
1079.214	589.62
1084.276	573.62
1089.333	586.62
1094.385	566.62
1099.431	563.62
1104.472	557.62
1109.509	551.62
1114.54	534.62
1119.565	526.62
1124.586	514.62
1129.602	505.62
1134.613	505.62
1139.618	498.62
1144.619	509.62
1149.614	516.62
1154.604	528.62
1159.589	527.62
1164.57	526.62
1169.545	538.62
1174.515	547.62
1179.48	535.62
1184.44	536.62
1189.395	530.62
1194.345	542.62
1199.29	530.62
1204.23	539.62
1209.165	523.62
1214.095	533.62
1219.021	529.62
1223.941	536.62
1228.856	537.62
1233.766	545.62
1238.672	536.62
1243.572	528.62
1248.467	520.62
1253.358	509.62
1258.244	499.62
1263.124	493.62
1268	468.62
1272.871	470.62
1277.737	456.62
1282.599	453.62
1287.455	449.62
1292.306	459.62
1297.153	467.62
1301.995	466.62
1306.832	475.62
1311.664	482.62
1316.491	460.62
1321.314	459.62
1326.132	469.62
1330.945	464.62
1335.753	462.62
1340.556	442.62
1345.354	453.62
1350.148	451.62
1354.937	454.62
1359.722	452.62
1364.501	456.62
1369.276	449.62
1374.046	429.62
1378.811	430.62
1383.572	429.62
1388.327	437.62
1393.079	419.62
1397.825	418.62
1402.567	405.62
1407.304	398.62
1412.036	396.62
1416.764	394.62
1421.487	396.62
1426.205	394.62
1430.919	394.62
1435.628	419.62
1440.333	404.62
1445.032	414.62
1449.727	414.62
1454.418	428.62
1459.104	430.62
1463.785	410.62
1468.462	414.62
1473.134	427.62
1477.802	417.62
1482.465	417.62
1487.123	420.62
1491.777	419.62
1496.426	425.62
1501.071	438.62
1505.711	429.62
1510.347	445.62
1514.978	440.62
1519.604	439.62
1524.226	446.62
1528.844	429.62
1533.457	425.62
1538.065	419.62
1542.669	402.62
1547.269	398.62
1551.864	409.62
1556.454	414.62
1561.041	414.62
1565.622	401.62
1570.199	382.62
1574.772	374.62
1579.34	377.62
1583.904	378.62
1588.464	371.62
1593.019	371.62
1597.569	385.62
1602.115	370.62
1606.657	359.62
1611.195	364.62
1615.728	358.62
1620.256	362.62
1624.78	356.62
1629.3	350.62
1633.816	352.62
1638.327	361.62
1642.834	374.62
1647.336	374.62
1651.834	367.62
1656.328	369.62
1660.817	379.62
1665.302	377.62
1669.783	374.62
1674.259	374.62
1678.732	364.62
1683.199	371.62
1687.663	381.62
1692.122	371.62
1696.577	372.62
1701.028	371.62
1705.474	360.62
1709.917	362.62
1714.355	356.62
1718.788	340.62
1723.218	341.62
1727.643	344.62
1732.064	328.62
1736.481	322.62
1740.893	317.62
1745.301	315.62
1749.705	304.62
1754.105	291.62
1758.501	293.62
1762.893	284.62
1767.28	289.62
1771.663	290.62
1776.042	288.62
1780.417	293.62
1784.787	300.62
1789.154	299.62
1793.516	299.62
1797.874	294.62
1802.228	291.62
1806.578	300.62
1810.924	296.62
1815.266	289.62
1819.603	275.62
1823.937	274.62
1828.266	263.62
1832.591	257.62
1836.913	249.62
1841.23	259.62
1845.543	256.62
1849.852	256.62
1854.156	254.62
1858.457	264.62
1862.754	259.62
1867.047	258.62
1871.335	260.62
1875.62	271.62
1879.9	268.62
1884.177	264.62
1888.449	268.62
1892.718	259.62
1896.982	274.62
1901.243	262.62
1905.499	259.62
1909.752	260.62
1914	264.62
1918.245	266.62
1922.485	270.62
1926.722	264.62
1930.954	272.62
1935.183	263.62
1939.408	268.62
1943.628	269.62
1947.845	267.62
1952.058	263.62
1956.267	267.62
1960.472	247.62
1964.673	248.62
1968.87	240.62
1973.063	232.62
1977.252	224.62
1981.438	217.62
1985.619	217.62
1989.797	203.62
1993.971	212.62
1998.14	207.62
2002.306	211.62
2006.469	210.62
2010.627	213.62
2014.781	209.62
2018.932	209.62
2023.078	197.62
2027.221	206.62
2031.36	197.62
2035.495	200.62
2039.627	197.62
2043.754	191.62
2047.878	189.62
2051.998	195.62
2056.114	185.62
2060.226	199.62
2064.334	200.62
2068.439	202.62
2072.54	200.62
2076.637	196.62
2080.73	207.62
2084.82	195.62
2088.906	207.62
2092.988	203.62
2097.066	202.62
2101.14	183.62
2105.211	203.62
2109.278	192.62
2113.342	189.62
2117.401	183.62
2121.457	175.62
2125.509	177.62
2129.558	171.62
2133.602	179.62
2137.643	164.62
2141.681	161.62
2145.714	168.62
2149.744	160.62
2153.77	164.62
2157.793	159.62
2161.812	159.62
2165.827	153.62
2169.838	148.62
2173.846	155.62
2177.851	151.62
2181.851	148.62
2185.848	142.62
2189.841	136.62
2193.831	142.62
2197.817	134.62
2201.799	137.62
2205.778	136.62
2209.753	123.62
2213.725	143.62
2217.693	136.62
2221.657	142.62
2225.618	147.62
2229.575	129.62
2233.529	140.62
2237.479	140.62
2241.425	142.62
2245.368	138.62
2249.307	128.62
2253.243	126.62
2257.175	134.62
2261.104	131.62
2265.029	123.62
2268.95	121.62
2272.868	119.62
2276.783	112.62
2280.694	111.62
2284.601	108.62
2288.505	116.62
2292.405	108.62
2296.302	112.62
2300.195	111.62
2304.085	111.62
2307.971	101.62
2311.854	104.62
2315.734	108.62
2319.609	100.62
2323.482	105.62
2327.351	113.62
2331.216	133.62
2335.078	129.62
2338.937	115.62
2342.792	94.62
2346.643	91.62
2350.492	91.62
2354.336	90.62
2358.178	98.62
2362.015	87.62
2365.85	84.62
2369.681	89.62
2373.508	85.62
2377.333	92.62
2381.153	86.62
2384.971	86.62
2388.785	89.62
2392.595	82.62
2396.402	85.62
2400.206	78.62
2404.007	80.62
2407.804	78.62
2411.597	82.62
2415.388	80.62
2419.174	83.62
2422.958	81.62
2426.738	86.62
2430.515	78.62
2434.289	81.62
2438.059	72.62
2441.825	76.62
2445.589	72.62
2449.349	65.62
2453.106	72.62
2456.859	72.62
2460.61	69.62
2464.356	59.62
2468.1	67.62
2471.84	66.62
2475.577	59.62
2479.311	59.62
2483.041	72.62
2486.768	60.62
2490.492	56.62
2494.213	65.62
2497.93	61.62
2501.644	55.62
2505.355	57.62
2509.062	63.62
2512.766	62.62
2516.467	68.62
2520.165	64.62
2523.859	61.62
2527.551	55.62
2531.239	58.62
2534.923	50.62
2538.605	56.62
2542.283	50.62
2545.958	56.62
2549.63	57.62
2553.299	55.62
2556.964	62.62
2560.626	50.62
2564.285	48.62
2567.941	52.62
2571.594	53.62
2575.243	49.62
2578.89	51.62
2582.533	50.62
2586.173	48.62
2589.809	54.62
2593.443	49.62
2597.073	48.62
2600.701	45.62
2604.325	51.62
2607.946	51.62
2611.564	42.62
2615.178	47.62
2618.79	43.62
2622.398	44.62
2626.004	38.62
2629.606	39.62
2633.205	34.62
2636.801	35.62
2640.394	38.62
2643.983	36.62
2647.57	35.62
2651.153	28.62
2654.734	30.62
2658.311	33.62
2661.885	29.62
2665.456	35.62
2669.025	26.62
2672.589	27.62
2676.151	22.62
2679.71	22.62
2683.266	25.62
2686.819	19.62
2690.368	24.62
2693.915	22.62
2697.458	17.62
2700.999	11.62
2704.536	21.62
2708.071	17.62
2711.602	7.62
2715.13	14.62
2718.656	13.62
2722.178	12.62
2725.697	7.62
2729.214	11.62
2732.727	17.62
2736.237	17.62
2739.744	13.62
2743.249	16.62
2746.75	13.62
2750.248	12.62
2753.743	13.62
2757.236	13.62
2760.725	11.62
2764.211	2.62
2767.695	19.62
2771.175	9.62
2774.652	8.62
2778.127	11.62
2781.598	8.62
2785.067	6.62
2788.532	6.62
2791.995	1.62
2795.455	5.62
2798.911	8.62
2802.365	-0.38
2805.816	5.62
2809.264	2.62
2812.709	2.62
2816.151	0.62
2819.59	11.62
2823.026	3.62
2826.46	5.62
2829.89	-1.38
2833.318	6.62
2836.742	1.62
2840.164	-0.38
2843.583	-2.38
2846.999	1.62
2850.412	-2.38
2853.822	-0.38
2857.229	1.62
2860.634	1.62
2864.035	4.62
2867.434	-2.38
2870.83	-0.38
2874.223	-4.38
2877.613	-14.38
2881	-8.38
2884.385	-14.38
2887.766	-8.38
2891.145	-7.38
2894.521	-8.38
2897.894	-15.38
2901.264	-14.38
2904.631	-18.38
2907.996	-17.38
2911.358	-10.38
2914.717	-13.38
2918.073	-20.38
2921.426	-17.38
2924.777	-20.38
2928.124	-21.38
2931.469	-17.38
2934.811	-20.38
2938.15	-24.38
2941.487	-18.38
2944.821	-26.38
2948.152	-27.38
2951.48	-28.38
2954.805	-18.38
2958.128	-24.38
2961.447	-23.38
2964.765	-31.38
2968.079	-24.38
2971.39	-23.38
2974.699	-26.38
2978.005	-19.38
2981.308	-21.38
2984.609	-31.38
2987.907	-15.38
2991.202	-26.38
2994.494	-18.38
2997.784	-25.38
3001.07	-24.38
3004.355	-26.38
3007.636	-26.38
3010.915	-26.38
3014.191	-24.38
3017.464	-27.38
3020.734	-22.38
3024.002	-39.38
3027.267	-28.38
3030.53	-32.38
3033.789	-29.38
3037.046	-35.38
3040.301	-36.38
3043.552	-42.38
3046.801	-35.38
3050.048	-35.38
3053.291	-36.38
3056.532	-38.38
3059.771	-30.38
3063.006	-39.38
3066.239	-39.38
3069.469	-36.38
3072.697	-38.38
3075.922	-42.38
3079.144	-33.38
3082.364	-37.38
3085.581	-36.38
3088.795	-43.38
3092.007	-44.38
3095.216	-37.38
3098.423	-40.38
3101.627	-37.38
3104.828	-45.38
3108.026	-38.38
3111.222	-43.38
3114.416	-37.38
3117.607	-37.38
3120.795	-38.38
3123.98	-44.38
3127.163	-39.38
3130.344	-43.38
3133.521	-40.38
3136.696	-40.38
3139.869	-41.38
3143.039	-48.38
3146.206	-46.38
3149.371	-45.38
3152.533	-48.38
3155.693	-50.38
3158.85	-44.38
3162.005	-49.38
3165.157	-46.38
3168.306	-38.38
3171.453	-49.38
3174.597	-40.38
3177.739	-46.38
3180.878	-48.38
3184.014	-51.38
3187.149	-52.38
3190.28	-53.38
3193.409	-48.38
3196.536	-57.38
3199.659	-50.38
3202.781	-59.38
3205.9	-53.38
3209.016	-64.38
3212.13	-62.38
3215.241	-59.38
3218.35	-53.38
3221.456	-57.38
3224.56	-51.38
3227.661	-58.38
3230.76	-63.38
3233.856	-61.38
3236.95	-59.38
3240.041	-59.38
3243.13	-63.38
3246.216	-57.38
3249.3	-56.38
3252.382	-54.38
3255.46	-54.38
3258.537	-26.38
3261.611	-54.38
3264.682	-59.38
3267.751	-54.38
3270.818	-63.38
3273.882	-58.38
3276.943	-57.38
3280.002	-55.38
3283.059	-56.38
3286.113	-55.38
3289.165	-52.38
3292.214	-56.38
3295.261	-57.38
3298.306	-60.38
3301.348	-64.38
3304.387	-57.38
3307.425	-62.38
3310.459	-64.38
3313.492	-63.38
3316.521	-66.38
3319.549	-60.38
3322.574	-59.38
3325.597	-64.38
3328.617	-62.38
3331.635	-67.38
3334.65	-63.38
3337.663	-65.38
3340.674	-55.38
3343.682	-62.38
3346.688	-66.38
3349.691	-67.38
3352.692	-59.38
3355.691	-62.38
3358.687	-61.38
3361.681	-60.38
3364.673	-68.38
3367.662	-59.38
3370.649	-70.38
3373.633	-63.38
3376.615	-65.38
3379.595	-68.38
3382.572	-64.38
3385.547	-68.38
3388.52	-60.38
3391.49	-61.38
3394.458	-71.38
3397.424	-62.38
3400.387	-62.38
3403.348	-65.38
3406.307	-64.38
3409.263	-65.38
3412.217	-68.38
3415.168	-67.38
3418.118	-67.38
3421.065	-63.38
3424.009	-69.38
3426.951	-65.38
3429.891	-65.38
3432.829	-64.38
3435.764	-64.38
3438.697	-62.38
3441.628	-62.38
3444.557	-65.38
3447.483	-70.38
3450.407	-79.38
3453.328	-66.38
3456.247	-65.38
3459.164	-71.38
3462.079	-67.38
3464.991	-71.38
3467.902	-73.38
3470.809	-76.38
3473.715	-72.38
3476.618	-75.38
3479.519	-65.38
3482.418	-73.38
3485.315	-73.38
3488.209	-77.38
3491.101	-68.38
3493.99	-72.38
3496.878	-69.38
3499.763	-69.38
3502.646	-68.38
3505.527	-77.38
3508.405	-70.38
3511.281	-75.38
3514.155	-65.38
3517.027	-72.38
3519.897	-68.38
3522.764	-68.38
3525.629	-72.38
3528.492	-66.38
3531.352	-73.38
3534.211	-75.38
3537.067	-72.38
3539.921	-68.38
3542.773	-75.38
3545.622	-71.38
3548.469	-74.38
3551.315	-66.38
3554.157	-68.38
3556.998	-72.38
3559.837	-64.38
3562.673	-68.38
3565.507	-65.38
3568.339	-67.38
3571.169	-75.38
3573.996	-73.38
3576.822	-62.38
3579.645	-71.38
3582.466	-71.38
3585.285	-71.38
3588.101	-76.38
3590.916	-80.38
3593.728	-68.38
3596.538	-78.38
3599.346	-76.38
3602.152	-77.38
3604.956	-74.38
3607.757	-73.38
3610.556	-74.38
3613.354	-73.38
3616.149	-81.38
3618.942	-75.38
3621.732	-74.38
3624.521	-71.38
3627.307	-76.38
3630.092	-76.38
3632.874	-76.38
3635.654	-71.38
3638.432	-72.38
3641.208	-79.38
3643.982	-69.38
3646.753	-75.38
3649.523	-79.38
3652.29	-76.38
3655.055	-76.38
3657.818	-79.38
3660.579	-78.38
3663.338	-78.38
3666.095	-76.38
3668.849	-76.38
3671.602	-76.38
3674.352	-79.38
3677.101	-76.38
3679.847	-80.38
3682.591	-76.38
3685.333	-76.38
3688.073	-84.38
3690.811	-76.38
3693.547	-77.38
3696.281	-77.38
3699.013	-79.38
3701.742	-79.38
3704.47	-78.38
3707.195	-73.38
3709.919	-73.38
3712.64	-79.38
3715.359	-77.38
3718.076	-70.38
3720.792	-80.38
3723.505	-78.38
3726.216	-79.38
3728.925	-73.38
3731.632	-76.38
3734.336	-76.38
3737.039	-76.38
3739.74	-72.38
3742.439	-72.38
3745.136	-75.38
3747.83	-76.38
3750.523	-73.38
3753.213	-92.38
3755.902	-79.38
3758.589	-78.38
3761.273	-82.38
3763.956	-76.38
3766.636	-76.38
3769.315	-74.38
3771.991	-76.38
3774.665	-73.38
3777.338	-76.38
3780.008	-84.38
3782.677	-77.38
3785.343	-76.38
3788.007	-82.38
3790.67	-77.38
3793.33	-76.38
3795.989	-73.38
3798.645	-77.38
3801.299	-72.38
3803.952	-76.38
3806.602	-78.38
3809.251	-81.38
3811.897	-78.38
3814.542	-76.38
3817.184	-72.38
3819.825	-74.38
3822.463	-76.38
3825.1	-81.38
3827.735	-74.38
3830.367	-80.38
3832.998	-72.38
3835.627	-73.38
3838.253	-75.38
3840.878	-69.38
3843.501	-75.38
3846.122	-82.38
3848.741	-76.38
3851.358	-73.38
3853.973	-74.38
3856.586	-80.38
3859.197	-72.38
3861.806	-79.38
3864.414	-72.38
3867.019	-68.38
3869.622	-67.38
3872.224	-52.38
3874.823	-44.38
3877.421	-19.38
3880.016	10.62
3882.61	46.62
3885.202	60.62
3887.792	31.62
3890.38	-11.38
3892.966	-44.38
3895.55	-60.38
3898.132	-71.38
3900.713	-78.38
3903.291	-80.38
3905.868	-75.38
3908.442	-76.38
3911.015	-74.38
3913.586	-78.38
3916.155	-77.38
3918.722	-78.38
3921.287	-80.38
3923.85	-83.38
3926.411	-80.38
3928.971	-80.38
3931.528	-81.38
3934.084	-84.38
3936.638	-79.38
3939.19	-82.38
3941.74	-82.38
3944.288	-82.38
3946.834	-76.38
3949.378	-80.38
3951.921	-78.38
3954.462	-76.38
3957	-78.38
3959.537	-74.38
3962.072	-67.38
3964.606	-81.38
3967.137	-79.38
3969.667	-79.38
3972.194	-85.38
3974.72	-79.38
3977.244	-78.38
3979.766	-81.38
3982.286	-76.38
3984.805	-79.38
3987.321	-77.38
3989.836	-78.38
3992.349	-78.38
3994.86	-74.38
3997.369	-78.38
3999.877	-73.38
4002.382	-76.38
4004.886	-73.38
4007.388	-68.38
4009.888	-73.38
4012.386	-74.38
4014.883	-76.38
4017.377	-72.38
4019.87	-72.38
4022.361	-82.38
4024.85	-78.38
4027.338	-72.38
4029.823	-77.38
4032.307	-73.38
4034.789	-76.38
4037.269	-76.38
4039.747	-79.38
4042.224	-74.38
4044.699	-72.38
4047.172	-74.38
4049.643	-76.38
4052.112	-72.38
4054.58	-77.38
4057.046	-78.38
4059.51	-84.38
4061.972	-76.38
4064.432	-71.38
4066.891	-76.38
4069.348	-68.38
4071.803	-79.38
4074.256	-75.38
4076.708	-76.38
4079.158	-77.38
4081.606	-77.38
4084.052	-83.38
4086.497	-80.38
4088.939	-84.38
4091.38	-80.38
4093.819	-79.38
4096.257	-79.38
4098.693	-83.38
4101.127	-79.38
4103.559	-78.38
4105.989	45.62
4108.418	48.62
4110.845	35.62
4113.27	32.62
4115.694	34.62
4118.115	31.62
4120.535	-76.38
4122.954	-71.38
4125.37	-78.38
4127.785	-77.38
4130.198	-80.38
4132.609	-73.38
4135.019	-74.38
4137.427	-78.38
4139.833	-76.38
4142.237	-78.38