File: Data/Raman/2017-08-29 - Alluminum 2/Aug 29 2017 - Aluminum 2/water 5_RamanShift_2.txt
Data from water 5_RamanShift_2.txt Node

Date: Tue Aug 29 12:49:37 IDT 2017
User: aro
Spectrometer: QEPB0276
Trigger mode: 0
Integration Time (sec): 3.000000E1
Scans to average: 1
Electric dark correction enabled: true
Nonlinearity correction enabled: false
Boxcar width: 0
XAxis mode: Raman Shifts
Number of Pixels in Spectrum: 1044
>>>>>Begin Spectral Data<<<<<
160.701	38.38
166.742	44.38
172.777	79.38
178.805	183.38
184.826	444.38
190.841	865.38
196.849	1411.38
202.85	1762.38
208.845	1907.38
214.833	1941.38
220.815	1971.38
226.789	1992.38
232.758	2048.38
238.719	2094.38
244.674	2160.38
250.623	2200.38
256.565	2246.38
262.5	2283.38
268.429	2330.38
274.351	2340.38
280.267	2411.38
286.176	2478.38
292.079	2509.38
297.975	2566.38
303.865	2633.38
309.748	2644.38
315.625	2702.38
321.495	2713.38
327.359	2736.38
333.217	2783.38
339.068	2797.38
344.912	2837.38
350.751	2894.38
356.583	2897.38
362.408	2917.38
368.227	3004.38
374.04	3176.38
379.847	3407.38
385.647	3506.38
391.44	3384.38
397.228	3228.38
403.009	3265.38
408.784	3592.38
414.553	4246.38
420.315	5042.38
426.071	5077.38
431.821	4233.38
437.565	3541.38
443.302	3308.38
449.033	3203.38
454.758	3144.38
460.477	3042.38
466.189	3007.38
471.896	2941.38
477.596	2902.38
483.29	2862.38
488.978	2867.38
494.66	2792.38
500.335	2686.38
506.005	2444.38
511.668	2137.38
517.325	1893.38
522.977	1716.38
528.622	1580.38
534.261	1480.38
539.894	1406.38
545.521	1341.38
551.141	1295.38
556.756	1284.38
562.365	1251.38
567.968	1230.38
573.565	1245.38
579.155	1242.38
584.74	1250.38
590.319	1240.38
595.892	1194.38
601.459	1213.38
607.02	1225.38
612.575	1203.38
618.124	1171.38
623.667	1145.38
629.204	1133.38
634.735	1195.38
640.261	1353.38
645.781	1608.38
651.294	1724.38
656.802	1518.38
662.304	1222.38
667.8	1084.38
673.29	1011.38
678.775	986.38
684.254	956.38
689.726	960.38
695.193	939.38
700.655	923.38
706.11	935.38
711.56	919.38
717.004	925.38
722.442	917.38
727.874	918.38
733.301	955.38
738.722	971.38
744.137	1025.38
749.547	1084.38
754.951	1150.38
760.349	1116.38
765.741	1074.38
771.128	1036.38
776.509	1065.38
781.885	1107.38
787.254	1151.38
792.618	1166.38
797.977	1159.38
803.33	1156.38
808.677	1164.38
814.019	1139.38
819.355	1127.38
824.686	1107.38
830.011	1074.38
835.33	1063.38
840.644	1024.38
845.952	1006.38
851.255	980.38
856.552	938.38
861.844	911.38
867.13	862.38
872.41	859.38
877.686	834.38
882.955	835.38
888.219	822.38
893.478	802.38
898.731	796.38
903.979	801.38
909.221	768.38
914.458	778.38
919.69	788.38
924.916	788.38
930.136	792.38
935.351	778.38
940.561	776.38
945.766	789.38
950.965	782.38
956.158	777.38
961.347	775.38
966.529	764.38
971.707	748.38
976.879	753.38
982.046	741.38
987.208	729.38
992.364	752.38
997.515	750.38
1002.66	753.38
1007.801	755.38
1012.936	778.38
1018.066	784.38
1023.19	799.38
1028.309	812.38
1033.423	813.38
1038.532	817.38
1043.636	835.38
1048.734	827.38
1053.827	833.38
1058.915	828.38
1063.998	841.38
1069.075	828.38
1074.147	821.38
1079.214	834.38
1084.276	816.38
1089.333	814.38
1094.385	826.38
1099.431	797.38
1104.472	783.38
1109.509	772.38
1114.54	744.38
1119.565	734.38
1124.586	732.38
1129.602	714.38
1134.613	709.38
1139.618	723.38
1144.619	718.38
1149.614	728.38
1154.604	727.38
1159.589	748.38
1164.57	755.38
1169.545	751.38
1174.515	761.38
1179.48	751.38
1184.44	757.38
1189.395	742.38
1194.345	760.38
1199.29	756.38
1204.23	737.38
1209.165	758.38
1214.095	750.38
1219.021	770.38
1223.941	753.38
1228.856	752.38
1233.766	756.38
1238.672	754.38
1243.572	743.38
1248.467	722.38
1253.358	726.38
1258.244	699.38
1263.124	698.38
1268	675.38
1272.871	650.38
1277.737	651.38
1282.599	643.38
1287.455	657.38
1292.306	646.38
1297.153	668.38
1301.995	658.38
1306.832	678.38
1311.664	655.38
1316.491	669.38
1321.314	657.38
1326.132	657.38
1330.945	663.38
1335.753	637.38
1340.556	634.38
1345.354	630.38
1350.148	635.38
1354.937	637.38
1359.722	617.38
1364.501	617.38
1369.276	615.38
1374.046	621.38
1378.811	608.38
1383.572	618.38
1388.327	621.38
1393.079	604.38
1397.825	601.38
1402.567	582.38
1407.304	577.38
1412.036	570.38
1416.764	571.38
1421.487	566.38
1426.205	564.38
1430.919	574.38
1435.628	594.38
1440.333	578.38
1445.032	601.38
1449.727	597.38
1454.418	601.38
1459.104	593.38
1463.785	588.38
1468.462	586.38
1473.134	585.38
1477.802	576.38
1482.465	574.38
1487.123	584.38
1491.777	594.38
1496.426	582.38
1501.071	594.38
1505.711	619.38
1510.347	607.38
1514.978	627.38
1519.604	627.38
1524.226	630.38
1528.844	616.38
1533.457	600.38
1538.065	585.38
1542.669	589.38
1547.269	576.38
1551.864	585.38
1556.454	587.38
1561.041	599.38
1565.622	573.38
1570.199	555.38
1574.772	557.38
1579.34	548.38
1583.904	557.38
1588.464	548.38
1593.019	535.38
1597.569	542.38
1602.115	532.38
1606.657	522.38
1611.195	523.38
1615.728	510.38
1620.256	506.38
1624.78	506.38
1629.3	505.38
1633.816	510.38
1638.327	515.38
1642.834	524.38
1647.336	513.38
1651.834	519.38
1656.328	522.38
1660.817	523.38
1665.302	511.38
1669.783	511.38
1674.259	524.38
1678.732	517.38
1683.199	517.38
1687.663	511.38
1692.122	498.38
1696.577	517.38
1701.028	519.38
1705.474	511.38
1709.917	515.38
1714.355	515.38
1718.788	496.38
1723.218	495.38
1727.643	492.38
1732.064	490.38
1736.481	473.38
1740.893	456.38
1745.301	453.38
1749.705	444.38
1754.105	436.38
1758.501	421.38
1762.893	424.38
1767.28	407.38
1771.663	398.38
1776.042	405.38
1780.417	412.38
1784.787	408.38
1789.154	417.38
1793.516	420.38
1797.874	430.38
1802.228	419.38
1806.578	423.38
1810.924	424.38
1815.266	415.38
1819.603	404.38
1823.937	387.38
1828.266	387.38
1832.591	376.38
1836.913	381.38
1841.23	376.38
1845.543	376.38
1849.852	375.38
1854.156	382.38
1858.457	366.38
1862.754	376.38
1867.047	380.38
1871.335	384.38
1875.62	382.38
1879.9	380.38
1884.177	382.38
1888.449	377.38
1892.718	372.38
1896.982	367.38
1901.243	367.38
1905.499	368.38
1909.752	376.38
1914	375.38
1918.245	386.38
1922.485	384.38
1926.722	382.38
1930.954	391.38
1935.183	384.38
1939.408	386.38
1943.628	399.38
1947.845	383.38
1952.058	390.38
1956.267	372.38
1960.472	360.38
1964.673	362.38
1968.87	344.38
1973.063	340.38
1977.252	323.38
1981.438	324.38
1985.619	318.38
1989.797	314.38
1993.971	313.38
1998.14	303.38
2002.306	306.38
2006.469	316.38
2010.627	305.38
2014.781	311.38
2018.932	300.38
2023.078	288.38
2027.221	301.38
2031.36	282.38
2035.495	295.38
2039.627	281.38
2043.754	288.38
2047.878	284.38
2051.998	280.38
2056.114	290.38
2060.226	280.38
2064.334	277.38
2068.439	280.38
2072.54	285.38
2076.637	293.38
2080.73	286.38
2084.82	294.38
2088.906	300.38
2092.988	303.38
2097.066	301.38
2101.14	293.38
2105.211	288.38
2109.278	273.38
2113.342	282.38
2117.401	272.38
2121.457	278.38
2125.509	271.38
2129.558	266.38
2133.602	266.38
2137.643	264.38
2141.681	255.38
2145.714	257.38
2149.744	251.38
2153.77	249.38
2157.793	251.38
2161.812	244.38
2165.827	239.38
2169.838	237.38
2173.846	234.38
2177.851	233.38
2181.851	228.38
2185.848	227.38
2189.841	222.38
2193.831	218.38
2197.817	215.38
2201.799	217.38
2205.778	218.38
2209.753	207.38
2213.725	222.38
2217.693	220.38
2221.657	224.38
2225.618	223.38
2229.575	223.38
2233.529	227.38
2237.479	220.38
2241.425	215.38
2245.368	215.38
2249.307	211.38
2253.243	207.38
2257.175	213.38
2261.104	204.38
2265.029	208.38
2268.95	195.38
2272.868	201.38
2276.783	189.38
2280.694	188.38
2284.601	186.38
2288.505	185.38
2292.405	182.38
2296.302	177.38
2300.195	179.38
2304.085	181.38
2307.971	175.38
2311.854	174.38
2315.734	175.38
2319.609	169.38
2323.482	168.38
2327.351	180.38
2331.216	223.38
2335.078	232.38
2338.937	202.38
2342.792	158.38
2346.643	153.38
2350.492	160.38
2354.336	154.38
2358.178	150.38
2362.015	156.38
2365.85	160.38
2369.681	163.38
2373.508	158.38
2377.333	155.38
2381.153	156.38
2384.971	153.38
2388.785	153.38
2392.595	154.38
2396.402	154.38
2400.206	148.38
2404.007	147.38
2407.804	153.38
2411.597	153.38
2415.388	152.38
2419.174	152.38
2422.958	150.38
2426.738	157.38
2430.515	147.38
2434.289	142.38
2438.059	137.38
2441.825	137.38
2445.589	138.38
2449.349	132.38
2453.106	130.38
2456.859	132.38
2460.61	136.38
2464.356	124.38
2468.1	124.38
2471.84	125.38
2475.577	121.38
2479.311	126.38
2483.041	130.38
2486.768	118.38
2490.492	113.38
2494.213	119.38
2497.93	120.38
2501.644	117.38
2505.355	122.38
2509.062	124.38
2512.766	121.38
2516.467	121.38
2520.165	113.38
2523.859	122.38
2527.551	111.38
2531.239	126.38
2534.923	122.38
2538.605	120.38
2542.283	115.38
2545.958	118.38
2549.63	117.38
2553.299	116.38
2556.964	119.38
2560.626	108.38
2564.285	117.38
2567.941	121.38
2571.594	116.38
2575.243	115.38
2578.89	114.38
2582.533	113.38
2586.173	108.38
2589.809	112.38
2593.443	115.38
2597.073	103.38
2600.701	105.38
2604.325	105.38
2607.946	102.38
2611.564	107.38
2615.178	96.38
2618.79	100.38
2622.398	96.38
2626.004	95.38
2629.606	91.38
2633.205	88.38
2636.801	94.38
2640.394	95.38
2643.983	83.38
2647.57	85.38
2651.153	82.38
2654.734	75.38
2658.311	82.38
2661.885	71.38
2665.456	81.38
2669.025	69.38
2672.589	72.38
2676.151	75.38
2679.71	64.38
2683.266	71.38
2686.819	57.38
2690.368	69.38
2693.915	59.38
2697.458	58.38
2700.999	59.38
2704.536	53.38
2708.071	54.38
2711.602	55.38
2715.13	48.38
2718.656	48.38
2722.178	47.38
2725.697	41.38
2729.214	42.38
2732.727	56.38
2736.237	42.38
2739.744	46.38
2743.249	49.38
2746.75	41.38
2750.248	45.38
2753.743	45.38
2757.236	43.38
2760.725	48.38
2764.211	39.38
2767.695	51.38
2771.175	45.38
2774.652	43.38
2778.127	42.38
2781.598	51.38
2785.067	36.38
2788.532	48.38
2791.995	32.38
2795.455	35.38
2798.911	37.38
2802.365	32.38
2805.816	40.38
2809.264	30.38
2812.709	32.38
2816.151	35.38
2819.59	46.38
2823.026	40.38
2826.46	35.38
2829.89	29.38
2833.318	38.38
2836.742	47.38
2840.164	29.38
2843.583	30.38
2846.999	39.38
2850.412	30.38
2853.822	34.38
2857.229	30.38
2860.634	28.38
2864.035	33.38
2867.434	37.38
2870.83	31.38
2874.223	31.38
2877.613	26.38
2881	18.38
2884.385	17.38
2887.766	20.38
2891.145	21.38
2894.521	20.38
2897.894	12.38
2901.264	16.38
2904.631	16.38
2907.996	10.38
2911.358	15.38
2914.717	9.38
2918.073	6.38
2921.426	12.38
2924.777	8.38
2928.124	-0.62
2931.469	8.38
2934.811	5.38
2938.15	6.38
2941.487	4.38
2944.821	2.38
2948.152	-4.62
2951.48	-1.62
2954.805	3.38
2958.128	-1.62
2961.447	-0.62
2964.765	-4.62
2968.079	0.38
2971.39	-9.62
2974.699	-4.62
2978.005	-7.62
2981.308	-6.62
2984.609	-6.62
2987.907	-2.62
2991.202	-13.62
2994.494	-4.62
2997.784	-7.62
3001.07	-10.62
3004.355	-4.62
3007.636	-8.62
3010.915	-21.62
3014.191	-12.62
3017.464	-13.62
3020.734	-14.62
3024.002	-18.62
3027.267	-11.62
3030.53	-17.62
3033.789	-9.62
3037.046	-25.62
3040.301	-20.62
3043.552	-26.62
3046.801	-22.62
3050.048	-24.62
3053.291	-23.62
3056.532	-28.62
3059.771	-20.62
3063.006	-24.62
3066.239	-29.62
3069.469	-21.62
3072.697	-32.62
3075.922	-30.62
3079.144	-27.62
3082.364	-23.62
3085.581	-25.62
3088.795	-33.62
3092.007	-35.62
3095.216	-36.62
3098.423	-31.62
3101.627	-23.62
3104.828	-28.62
3108.026	-28.62
3111.222	-34.62
3114.416	-27.62
3117.607	-30.62
3120.795	-28.62
3123.98	-35.62
3127.163	-28.62
3130.344	-32.62
3133.521	-33.62
3136.696	-31.62
3139.869	-27.62
3143.039	-38.62
3146.206	-36.62
3149.371	-36.62
3152.533	-35.62
3155.693	-38.62
3158.85	-33.62
3162.005	-39.62
3165.157	-35.62
3168.306	-36.62
3171.453	-40.62
3174.597	-41.62
3177.739	-38.62
3180.878	-45.62
3184.014	-49.62
3187.149	-47.62
3190.28	-41.62
3193.409	-40.62
3196.536	-51.62
3199.659	-45.62
3202.781	-52.62
3205.9	-48.62
3209.016	-60.62
3212.13	-52.62
3215.241	-52.62
3218.35	-50.62
3221.456	-51.62
3224.56	-51.62
3227.661	-58.62
3230.76	-57.62
3233.856	-53.62
3236.95	-57.62
3240.041	-55.62
3243.13	-59.62
3246.216	-57.62
3249.3	-55.62
3252.382	-57.62
3255.46	-51.62
3258.537	-24.62
3261.611	-53.62
3264.682	-59.62
3267.751	-52.62
3270.818	-60.62
3273.882	-57.62
3276.943	-56.62
3280.002	-50.62
3283.059	-58.62
3286.113	-60.62
3289.165	-59.62
3292.214	-60.62
3295.261	-58.62
3298.306	-60.62
3301.348	-60.62
3304.387	-63.62
3307.425	-61.62
3310.459	-61.62
3313.492	-62.62
3316.521	-60.62
3319.549	-65.62
3322.574	-67.62
3325.597	-68.62
3328.617	-63.62
3331.635	-60.62
3334.65	-58.62
3337.663	-70.62
3340.674	-62.62
3343.682	-62.62
3346.688	-67.62
3349.691	-67.62
3352.692	-64.62
3355.691	-68.62
3358.687	-67.62
3361.681	-66.62
3364.673	-63.62
3367.662	-65.62
3370.649	-69.62
3373.633	-62.62
3376.615	-66.62
3379.595	-69.62
3382.572	-68.62
3385.547	-67.62
3388.52	-63.62
3391.49	-71.62
3394.458	-69.62
3397.424	-64.62
3400.387	-66.62
3403.348	-69.62
3406.307	-65.62
3409.263	-69.62
3412.217	-66.62
3415.168	-67.62
3418.118	-73.62
3421.065	-69.62
3424.009	-70.62
3426.951	-70.62
3429.891	-66.62
3432.829	-70.62
3435.764	-70.62
3438.697	-66.62
3441.628	-68.62
3444.557	-67.62
3447.483	-70.62
3450.407	-76.62
3453.328	-67.62
3456.247	-69.62
3459.164	-67.62
3462.079	-71.62
3464.991	-72.62
3467.902	-78.62
3470.809	-76.62
3473.715	-72.62
3476.618	-76.62
3479.519	-62.62
3482.418	-75.62
3485.315	-76.62
3488.209	-75.62
3491.101	-69.62
3493.99	-71.62
3496.878	-73.62
3499.763	-77.62
3502.646	-71.62
3505.527	-74.62
3508.405	-73.62
3511.281	-75.62
3514.155	-69.62
3517.027	-80.62
3519.897	-70.62
3522.764	-70.62
3525.629	-74.62
3528.492	-72.62
3531.352	-77.62
3534.211	-74.62
3537.067	-72.62
3539.921	-72.62
3542.773	-74.62
3545.622	-76.62
3548.469	-78.62
3551.315	-71.62
3554.157	-74.62
3556.998	-73.62
3559.837	-75.62
3562.673	-73.62
3565.507	-79.62
3568.339	-71.62
3571.169	-74.62
3573.996	-76.62
3576.822	-70.62
3579.645	-76.62
3582.466	-71.62
3585.285	-77.62
3588.101	-79.62
3590.916	-80.62
3593.728	-70.62
3596.538	-80.62
3599.346	-81.62
3602.152	-82.62
3604.956	-76.62
3607.757	-85.62
3610.556	-79.62
3613.354	-79.62
3616.149	-79.62
3618.942	-79.62
3621.732	-85.62
3624.521	-81.62
3627.307	-84.62
3630.092	-79.62
3632.874	-86.62
3635.654	-83.62
3638.432	-83.62
3641.208	-88.62
3643.982	-83.62
3646.753	-84.62
3649.523	-84.62
3652.29	-84.62
3655.055	-80.62
3657.818	-86.62
3660.579	-86.62
3663.338	-86.62
3666.095	-82.62
3668.849	-87.62
3671.602	-82.62
3674.352	-83.62
3677.101	-78.62
3679.847	-86.62
3682.591	-78.62
3685.333	-82.62
3688.073	-84.62
3690.811	-83.62
3693.547	-80.62
3696.281	-84.62
3699.013	-82.62
3701.742	-81.62
3704.47	-84.62
3707.195	-76.62
3709.919	-81.62
3712.64	-86.62
3715.359	-80.62
3718.076	-79.62
3720.792	-82.62
3723.505	-82.62
3726.216	-86.62
3728.925	-81.62
3731.632	-84.62
3734.336	-80.62
3737.039	-86.62
3739.74	-87.62
3742.439	-80.62
3745.136	-83.62
3747.83	-85.62
3750.523	-79.62
3753.213	-105.62
3755.902	-87.62
3758.589	-83.62
3761.273	-88.62
3763.956	-81.62
3766.636	-86.62
3769.315	-82.62
3771.991	-86.62
3774.665	-79.62
3777.338	-78.62
3780.008	-91.62
3782.677	-82.62
3785.343	-85.62
3788.007	-85.62
3790.67	-84.62
3793.33	-80.62
3795.989	-77.62
3798.645	-91.62
3801.299	-87.62
3803.952	-87.62
3806.602	-86.62
3809.251	-84.62
3811.897	-86.62
3814.542	-84.62
3817.184	-78.62
3819.825	-86.62
3822.463	-84.62
3825.1	-83.62
3827.735	-83.62
3830.367	-83.62
3832.998	-78.62
3835.627	-81.62
3838.253	-85.62
3840.878	-81.62
3843.501	-80.62
3846.122	-88.62
3848.741	-81.62
3851.358	-82.62
3853.973	-84.62
3856.586	-86.62
3859.197	-82.62
3861.806	-83.62
3864.414	-79.62
3867.019	-71.62
3869.622	-74.62
3872.224	-63.62
3874.823	-48.62
3877.421	-24.62
3880.016	17.38
3882.61	49.38
3885.202	76.38
3887.792	38.38
3890.38	-12.62
3892.966	-56.62
3895.55	-63.62
3898.132	-83.62
3900.713	-82.62
3903.291	-92.62
3905.868	-88.62
3908.442	-88.62
3911.015	-81.62
3913.586	-87.62
3916.155	-86.62
3918.722	-84.62
3921.287	-88.62
3923.85	-91.62
3926.411	-85.62
3928.971	-88.62
3931.528	-83.62
3934.084	-92.62
3936.638	-92.62
3939.19	-90.62
3941.74	-86.62
3944.288	-90.62
3946.834	-86.62
3949.378	-87.62
3951.921	-82.62
3954.462	-87.62
3957	-84.62
3959.537	-82.62
3962.072	-74.62
3964.606	-84.62
3967.137	-83.62
3969.667	-85.62
3972.194	-84.62
3974.72	-82.62
3977.244	-85.62
3979.766	-88.62
3982.286	-86.62
3984.805	-83.62
3987.321	-81.62
3989.836	-86.62
3992.349	-83.62
3994.86	-85.62
3997.369	-87.62
3999.877	-79.62
4002.382	-78.62
4004.886	-80.62
4007.388	-80.62
4009.888	-82.62
4012.386	-83.62
4014.883	-86.62
4017.377	-77.62
4019.87	-82.62
4022.361	-85.62
4024.85	-85.62
4027.338	-78.62
4029.823	-81.62
4032.307	-82.62
4034.789	-86.62
4037.269	-83.62
4039.747	-82.62
4042.224	-81.62
4044.699	-82.62
4047.172	-82.62
4049.643	-76.62
4052.112	-82.62
4054.58	-81.62
4057.046	-75.62
4059.51	-79.62
4061.972	-80.62
4064.432	-77.62
4066.891	-83.62
4069.348	-74.62
4071.803	-81.62
4074.256	-76.62
4076.708	-83.62
4079.158	-81.62
4081.606	-81.62
4084.052	-85.62
4086.497	-87.62
4088.939	-89.62
4091.38	-81.62
4093.819	-81.62
4096.257	-85.62
4098.693	-88.62
4101.127	-91.62
4103.559	-91.62
4105.989	57.38
4108.418	47.38
4110.845	43.38
4113.27	31.38
4115.694	35.38
4118.115	38.38
4120.535	-83.62
4122.954	-78.62
4125.37	-86.62
4127.785	-88.62
4130.198	-81.62
4132.609	-84.62
4135.019	-86.62
4137.427	-83.62
4139.833	-85.62
4142.237	-89.62