File: Data/Raman/2017-08-29 - Alluminum 2/Aug 29 2017 - Aluminum 2/water 2_RamanShift_2.txt
Data from water 2_RamanShift_2.txt Node

Date: Tue Aug 29 12:05:07 IDT 2017
User: aro
Spectrometer: QEPB0276
Trigger mode: 0
Integration Time (sec): 3.000000E1
Scans to average: 1
Electric dark correction enabled: true
Nonlinearity correction enabled: false
Boxcar width: 0
XAxis mode: Raman Shifts
Number of Pixels in Spectrum: 1044
>>>>>Begin Spectral Data<<<<<
160.701	28.88
166.742	40.88
172.777	78.88
178.805	184.88
184.826	426.88
190.841	833.88
196.849	1317.88
202.85	1680.88
208.845	1799.88
214.833	1831.88
220.815	1846.88
226.789	1895.88
232.758	1946.88
238.719	1993.88
244.674	2037.88
250.623	2061.88
256.565	2101.88
262.5	2127.88
268.429	2176.88
274.351	2215.88
280.267	2252.88
286.176	2319.88
292.079	2349.88
297.975	2398.88
303.865	2430.88
309.748	2456.88
315.625	2500.88
321.495	2528.88
327.359	2540.88
333.217	2588.88
339.068	2590.88
344.912	2633.88
350.751	2653.88
356.583	2693.88
362.408	2717.88
368.227	2807.88
374.04	2945.88
379.847	3145.88
385.647	3278.88
391.44	3133.88
397.228	2997.88
403.009	3034.88
408.784	3321.88
414.553	3970.88
420.315	4720.88
426.071	4700.88
431.821	3918.88
437.565	3295.88
443.302	3075.88
449.033	2959.88
454.758	2916.88
460.477	2863.88
466.189	2782.88
471.896	2736.88
477.596	2692.88
483.29	2672.88
488.978	2678.88
494.66	2612.88
500.335	2476.88
506.005	2277.88
511.668	2017.88
517.325	1789.88
522.977	1613.88
528.622	1491.88
534.261	1401.88
539.894	1350.88
545.521	1281.88
551.141	1253.88
556.756	1222.88
562.365	1194.88
567.968	1187.88
573.565	1177.88
579.155	1208.88
584.74	1198.88
590.319	1183.88
595.892	1153.88
601.459	1164.88
607.02	1192.88
612.575	1151.88
618.124	1132.88
623.667	1119.88
629.204	1097.88
634.735	1161.88
640.261	1336.88
645.781	1567.88
651.294	1644.88
656.802	1484.88
662.304	1191.88
667.8	1029.88
673.29	994.88
678.775	970.88
684.254	956.88
689.726	945.88
695.193	926.88
700.655	916.88
706.11	912.88
711.56	913.88
717.004	900.88
722.442	902.88
727.874	902.88
733.301	930.88
738.722	948.88
744.137	989.88
749.547	1058.88
754.951	1094.88
760.349	1075.88
765.741	1029.88
771.128	1013.88
776.509	1027.88
781.885	1081.88
787.254	1103.88
792.618	1108.88
797.977	1129.88
803.33	1115.88
808.677	1118.88
814.019	1102.88
819.355	1084.88
824.686	1055.88
830.011	1039.88
835.33	1010.88
840.644	987.88
845.952	969.88
851.255	936.88
856.552	918.88
861.844	871.88
867.13	847.88
872.41	830.88
877.686	811.88
882.955	809.88
888.219	791.88
893.478	782.88
898.731	774.88
903.979	779.88
909.221	761.88
914.458	763.88
919.69	756.88
924.916	764.88
930.136	772.88
935.351	758.88
940.561	754.88
945.766	746.88
950.965	750.88
956.158	756.88
961.347	752.88
966.529	745.88
971.707	737.88
976.879	721.88
982.046	717.88
987.208	712.88
992.364	712.88
997.515	726.88
1002.66	721.88
1007.801	747.88
1012.936	756.88
1018.066	742.88
1023.19	764.88
1028.309	776.88
1033.423	785.88
1038.532	785.88
1043.636	795.88
1048.734	791.88
1053.827	798.88
1058.915	796.88
1063.998	798.88
1069.075	801.88
1074.147	787.88
1079.214	777.88
1084.276	790.88
1089.333	783.88
1094.385	783.88
1099.431	768.88
1104.472	755.88
1109.509	743.88
1114.54	712.88
1119.565	713.88
1124.586	680.88
1129.602	682.88
1134.613	686.88
1139.618	685.88
1144.619	699.88
1149.614	696.88
1154.604	704.88
1159.589	703.88
1164.57	709.88
1169.545	721.88
1174.515	723.88
1179.48	714.88
1184.44	719.88
1189.395	712.88
1194.345	721.88
1199.29	714.88
1204.23	703.88
1209.165	714.88
1214.095	718.88
1219.021	729.88
1223.941	728.88
1228.856	727.88
1233.766	727.88
1238.672	721.88
1243.572	708.88
1248.467	705.88
1253.358	695.88
1258.244	669.88
1263.124	656.88
1268	636.88
1272.871	639.88
1277.737	624.88
1282.599	627.88
1287.455	619.88
1292.306	632.88
1297.153	640.88
1301.995	632.88
1306.832	640.88
1311.664	636.88
1316.491	627.88
1321.314	630.88
1326.132	628.88
1330.945	623.88
1335.753	615.88
1340.556	611.88
1345.354	607.88
1350.148	598.88
1354.937	597.88
1359.722	579.88
1364.501	593.88
1369.276	594.88
1374.046	600.88
1378.811	591.88
1383.572	591.88
1388.327	596.88
1393.079	587.88
1397.825	571.88
1402.567	551.88
1407.304	563.88
1412.036	547.88
1416.764	540.88
1421.487	541.88
1426.205	539.88
1430.919	547.88
1435.628	557.88
1440.333	567.88
1445.032	569.88
1449.727	562.88
1454.418	568.88
1459.104	572.88
1463.785	564.88
1468.462	554.88
1473.134	571.88
1477.802	558.88
1482.465	557.88
1487.123	562.88
1491.777	564.88
1496.426	567.88
1501.071	574.88
1505.711	586.88
1510.347	591.88
1514.978	608.88
1519.604	601.88
1524.226	614.88
1528.844	589.88
1533.457	584.88
1538.065	578.88
1542.669	558.88
1547.269	558.88
1551.864	563.88
1556.454	574.88
1561.041	575.88
1565.622	562.88
1570.199	529.88
1574.772	526.88
1579.34	516.88
1583.904	529.88
1588.464	510.88
1593.019	524.88
1597.569	517.88
1602.115	500.88
1606.657	497.88
1611.195	487.88
1615.728	486.88
1620.256	486.88
1624.78	482.88
1629.3	473.88
1633.816	478.88
1638.327	491.88
1642.834	488.88
1647.336	493.88
1651.834	499.88
1656.328	502.88
1660.817	517.88
1665.302	503.88
1669.783	503.88
1674.259	517.88
1678.732	506.88
1683.199	495.88
1687.663	505.88
1692.122	499.88
1696.577	499.88
1701.028	492.88
1705.474	511.88
1709.917	525.88
1714.355	502.88
1718.788	497.88
1723.218	491.88
1727.643	478.88
1732.064	472.88
1736.481	469.88
1740.893	455.88
1745.301	442.88
1749.705	431.88
1754.105	434.88
1758.501	421.88
1762.893	412.88
1767.28	414.88
1771.663	414.88
1776.042	404.88
1780.417	409.88
1784.787	414.88
1789.154	423.88
1793.516	420.88
1797.874	428.88
1802.228	426.88
1806.578	439.88
1810.924	430.88
1815.266	419.88
1819.603	412.88
1823.937	400.88
1828.266	391.88
1832.591	380.88
1836.913	381.88
1841.23	369.88
1845.543	362.88
1849.852	358.88
1854.156	372.88
1858.457	362.88
1862.754	365.88
1867.047	376.88
1871.335	378.88
1875.62	379.88
1879.9	379.88
1884.177	374.88
1888.449	372.88
1892.718	375.88
1896.982	383.88
1901.243	373.88
1905.499	374.88
1909.752	382.88
1914	387.88
1918.245	397.88
1922.485	400.88
1926.722	400.88
1930.954	404.88
1935.183	402.88
1939.408	400.88
1943.628	388.88
1947.845	391.88
1952.058	393.88
1956.267	391.88
1960.472	380.88
1964.673	377.88
1968.87	350.88
1973.063	349.88
1977.252	338.88
1981.438	344.88
1985.619	326.88
1989.797	316.88
1993.971	318.88
1998.14	319.88
2002.306	312.88
2006.469	308.88
2010.627	311.88
2014.781	312.88
2018.932	302.88
2023.078	298.88
2027.221	310.88
2031.36	302.88
2035.495	291.88
2039.627	292.88
2043.754	287.88
2047.878	300.88
2051.998	280.88
2056.114	287.88
2060.226	302.88
2064.334	308.88
2068.439	304.88
2072.54	304.88
2076.637	297.88
2080.73	295.88
2084.82	307.88
2088.906	315.88
2092.988	315.88
2097.066	315.88
2101.14	300.88
2105.211	300.88
2109.278	290.88
2113.342	297.88
2117.401	281.88
2121.457	276.88
2125.509	286.88
2129.558	273.88
2133.602	272.88
2137.643	265.88
2141.681	265.88
2145.714	257.88
2149.744	255.88
2153.77	260.88
2157.793	254.88
2161.812	248.88
2165.827	249.88
2169.838	238.88
2173.846	245.88
2177.851	240.88
2181.851	230.88
2185.848	234.88
2189.841	226.88
2193.831	215.88
2197.817	223.88
2201.799	225.88
2205.778	213.88
2209.753	216.88
2213.725	218.88
2217.693	221.88
2221.657	212.88
2225.618	224.88
2229.575	228.88
2233.529	223.88
2237.479	221.88
2241.425	218.88
2245.368	215.88
2249.307	208.88
2253.243	209.88
2257.175	201.88
2261.104	207.88
2265.029	201.88
2268.95	205.88
2272.868	191.88
2276.783	191.88
2280.694	179.88
2284.601	194.88
2288.505	193.88
2292.405	182.88
2296.302	178.88
2300.195	174.88
2304.085	172.88
2307.971	171.88
2311.854	171.88
2315.734	168.88
2319.609	163.88
2323.482	170.88
2327.351	181.88
2331.216	213.88
2335.078	220.88
2338.937	187.88
2342.792	155.88
2346.643	156.88
2350.492	150.88
2354.336	152.88
2358.178	146.88
2362.015	155.88
2365.85	147.88
2369.681	142.88
2373.508	149.88
2377.333	151.88
2381.153	152.88
2384.971	138.88
2388.785	139.88
2392.595	142.88
2396.402	147.88
2400.206	136.88
2404.007	136.88
2407.804	132.88
2411.597	141.88
2415.388	134.88
2419.174	132.88
2422.958	137.88
2426.738	128.88
2430.515	133.88
2434.289	133.88
2438.059	129.88
2441.825	127.88
2445.589	126.88
2449.349	124.88
2453.106	124.88
2456.859	124.88
2460.61	123.88
2464.356	116.88
2468.1	118.88
2471.84	112.88
2475.577	116.88
2479.311	117.88
2483.041	114.88
2486.768	115.88
2490.492	119.88
2494.213	108.88
2497.93	112.88
2501.644	113.88
2505.355	112.88
2509.062	118.88
2512.766	122.88
2516.467	113.88
2520.165	111.88
2523.859	112.88
2527.551	118.88
2531.239	115.88
2534.923	105.88
2538.605	114.88
2542.283	104.88
2545.958	115.88
2549.63	116.88
2553.299	103.88
2556.964	108.88
2560.626	110.88
2564.285	99.88
2567.941	107.88
2571.594	108.88
2575.243	98.88
2578.89	107.88
2582.533	98.88
2586.173	107.88
2589.809	97.88
2593.443	102.88
2597.073	90.88
2600.701	93.88
2604.325	95.88
2607.946	92.88
2611.564	86.88
2615.178	89.88
2618.79	79.88
2622.398	81.88
2626.004	77.88
2629.606	88.88
2633.205	79.88
2636.801	86.88
2640.394	74.88
2643.983	70.88
2647.57	79.88
2651.153	68.88
2654.734	67.88
2658.311	75.88
2661.885	62.88
2665.456	76.88
2669.025	53.88
2672.589	66.88
2676.151	61.88
2679.71	56.88
2683.266	62.88
2686.819	55.88
2690.368	57.88
2693.915	60.88
2697.458	52.88
2700.999	50.88
2704.536	51.88
2708.071	53.88
2711.602	41.88
2715.13	54.88
2718.656	53.88
2722.178	44.88
2725.697	43.88
2729.214	42.88
2732.727	55.88
2736.237	45.88
2739.744	45.88
2743.249	51.88
2746.75	49.88
2750.248	55.88
2753.743	42.88
2757.236	51.88
2760.725	45.88
2764.211	42.88
2767.695	51.88
2771.175	52.88
2774.652	40.88
2778.127	47.88
2781.598	39.88
2785.067	34.88
2788.532	45.88
2791.995	40.88
2795.455	43.88
2798.911	43.88
2802.365	32.88
2805.816	40.88
2809.264	33.88
2812.709	36.88
2816.151	37.88
2819.59	37.88
2823.026	40.88
2826.46	39.88
2829.89	30.88
2833.318	28.88
2836.742	40.88
2840.164	30.88
2843.583	29.88
2846.999	36.88
2850.412	31.88
2853.822	28.88
2857.229	31.88
2860.634	30.88
2864.035	30.88
2867.434	34.88
2870.83	32.88
2874.223	23.88
2877.613	18.88
2881	16.88
2884.385	16.88
2887.766	20.88
2891.145	16.88
2894.521	15.88
2897.894	14.88
2901.264	8.88
2904.631	9.88
2907.996	4.88
2911.358	14.88
2914.717	6.88
2918.073	2.88
2921.426	1.88
2924.777	4.88
2928.124	1.88
2931.469	1.88
2934.811	3.88
2938.15	0.88
2941.487	-0.12
2944.821	-3.12
2948.152	-9.12
2951.48	-11.12
2954.805	2.88
2958.128	-4.12
2961.447	-7.12
2964.765	-16.12
2968.079	-5.12
2971.39	-5.12
2974.699	-6.12
2978.005	-4.12
2981.308	-2.12
2984.609	-13.12
2987.907	-5.12
2991.202	-13.12
2994.494	-4.12
2997.784	-7.12
3001.07	-8.12
3004.355	-5.12
3007.636	-12.12
3010.915	-10.12
3014.191	-13.12
3017.464	-14.12
3020.734	-13.12
3024.002	-20.12
3027.267	-12.12
3030.53	-19.12
3033.789	-11.12
3037.046	-20.12
3040.301	-24.12
3043.552	-23.12
3046.801	-20.12
3050.048	-26.12
3053.291	-24.12
3056.532	-24.12
3059.771	-16.12
3063.006	-30.12
3066.239	-22.12
3069.469	-17.12
3072.697	-29.12
3075.922	-23.12
3079.144	-28.12
3082.364	-30.12
3085.581	-23.12
3088.795	-29.12
3092.007	-33.12
3095.216	-31.12
3098.423	-23.12
3101.627	-24.12
3104.828	-24.12
3108.026	-28.12
3111.222	-34.12
3114.416	-30.12
3117.607	-29.12
3120.795	-33.12
3123.98	-34.12
3127.163	-32.12
3130.344	-35.12
3133.521	-38.12
3136.696	-31.12
3139.869	-28.12
3143.039	-36.12
3146.206	-38.12
3149.371	-34.12
3152.533	-31.12
3155.693	-34.12
3158.85	-34.12
3162.005	-42.12
3165.157	-35.12
3168.306	-33.12
3171.453	-39.12
3174.597	-36.12
3177.739	-39.12
3180.878	-44.12
3184.014	-40.12
3187.149	-40.12
3190.28	-43.12
3193.409	-42.12
3196.536	-48.12
3199.659	-45.12
3202.781	-45.12
3205.9	-42.12
3209.016	-55.12
3212.13	-48.12
3215.241	-45.12
3218.35	-48.12
3221.456	-48.12
3224.56	-48.12
3227.661	-49.12
3230.76	-46.12
3233.856	-49.12
3236.95	-48.12
3240.041	-42.12
3243.13	-53.12
3246.216	-54.12
3249.3	-51.12
3252.382	-52.12
3255.46	-46.12
3258.537	-23.12
3261.611	-49.12
3264.682	-54.12
3267.751	-47.12
3270.818	-51.12
3273.882	-50.12
3276.943	-46.12
3280.002	-52.12
3283.059	-57.12
3286.113	-49.12
3289.165	-55.12
3292.214	-56.12
3295.261	-56.12
3298.306	-57.12
3301.348	-59.12
3304.387	-58.12
3307.425	-51.12
3310.459	-62.12
3313.492	-59.12
3316.521	-65.12
3319.549	-58.12
3322.574	-58.12
3325.597	-62.12
3328.617	-55.12
3331.635	-56.12
3334.65	-60.12
3337.663	-68.12
3340.674	-55.12
3343.682	-61.12
3346.688	-62.12
3349.691	-67.12
3352.692	-58.12
3355.691	-60.12
3358.687	-64.12
3361.681	-55.12
3364.673	-61.12
3367.662	-54.12
3370.649	-61.12
3373.633	-57.12
3376.615	-64.12
3379.595	-62.12
3382.572	-59.12
3385.547	-58.12
3388.52	-59.12
3391.49	-60.12
3394.458	-65.12
3397.424	-57.12
3400.387	-61.12
3403.348	-60.12
3406.307	-60.12
3409.263	-62.12
3412.217	-61.12
3415.168	-61.12
3418.118	-66.12
3421.065	-61.12
3424.009	-59.12
3426.951	-64.12
3429.891	-59.12
3432.829	-61.12
3435.764	-64.12
3438.697	-65.12
3441.628	-65.12
3444.557	-66.12
3447.483	-71.12
3450.407	-77.12
3453.328	-64.12
3456.247	-67.12
3459.164	-66.12
3462.079	-68.12
3464.991	-70.12
3467.902	-69.12
3470.809	-74.12
3473.715	-67.12
3476.618	-77.12
3479.519	-63.12
3482.418	-69.12
3485.315	-73.12
3488.209	-75.12
3491.101	-70.12
3493.99	-67.12
3496.878	-71.12
3499.763	-72.12
3502.646	-70.12
3505.527	-80.12
3508.405	-70.12
3511.281	-75.12
3514.155	-64.12
3517.027	-70.12
3519.897	-69.12
3522.764	-68.12
3525.629	-70.12
3528.492	-67.12
3531.352	-72.12
3534.211	-68.12
3537.067	-68.12
3539.921	-65.12
3542.773	-76.12
3545.622	-72.12
3548.469	-75.12
3551.315	-68.12
3554.157	-65.12
3556.998	-72.12
3559.837	-63.12
3562.673	-69.12
3565.507	-67.12
3568.339	-68.12
3571.169	-69.12
3573.996	-72.12
3576.822	-68.12
3579.645	-72.12
3582.466	-67.12
3585.285	-69.12
3588.101	-73.12
3590.916	-71.12
3593.728	-64.12
3596.538	-74.12
3599.346	-70.12
3602.152	-75.12
3604.956	-73.12
3607.757	-80.12
3610.556	-74.12
3613.354	-73.12
3616.149	-74.12
3618.942	-71.12
3621.732	-76.12
3624.521	-73.12
3627.307	-78.12
3630.092	-74.12
3632.874	-79.12
3635.654	-71.12
3638.432	-80.12
3641.208	-79.12
3643.982	-77.12
3646.753	-81.12
3649.523	-79.12
3652.29	-82.12
3655.055	-76.12
3657.818	-77.12
3660.579	-76.12
3663.338	-79.12
3666.095	-80.12
3668.849	-77.12
3671.602	-76.12
3674.352	-79.12
3677.101	-75.12
3679.847	-85.12
3682.591	-77.12
3685.333	-74.12
3688.073	-83.12
3690.811	-77.12
3693.547	-75.12
3696.281	-78.12
3699.013	-80.12
3701.742	-76.12
3704.47	-85.12
3707.195	-79.12
3709.919	-77.12
3712.64	-82.12
3715.359	-75.12
3718.076	-73.12
3720.792	-81.12
3723.505	-76.12
3726.216	-79.12
3728.925	-80.12
3731.632	-73.12
3734.336	-80.12
3737.039	-72.12
3739.74	-74.12
3742.439	-72.12
3745.136	-74.12
3747.83	-79.12
3750.523	-76.12
3753.213	-96.12
3755.902	-78.12
3758.589	-80.12
3761.273	-83.12
3763.956	-77.12
3766.636	-76.12
3769.315	-4.12
3771.991	-70.12
3774.665	-68.12
3777.338	-74.12
3780.008	-86.12
3782.677	-75.12
3785.343	-84.12
3788.007	-82.12
3790.67	-81.12
3793.33	-81.12
3795.989	-76.12
3798.645	-83.12
3801.299	-76.12
3803.952	-77.12
3806.602	-83.12
3809.251	-81.12
3811.897	-78.12
3814.542	-80.12
3817.184	-78.12
3819.825	-84.12
3822.463	-80.12
3825.1	-82.12
3827.735	-77.12
3830.367	-84.12
3832.998	-79.12
3835.627	-80.12
3838.253	-80.12
3840.878	-81.12
3843.501	-78.12
3846.122	-85.12
3848.741	-81.12
3851.358	-79.12
3853.973	-80.12
3856.586	-76.12
3859.197	-72.12
3861.806	-79.12
3864.414	-75.12
3867.019	-70.12
3869.622	-68.12
3872.224	-58.12
3874.823	-34.12
3877.421	-13.12
3880.016	30.88
3882.61	66.88
3885.202	87.88
3887.792	51.88
3890.38	1.88
3892.966	-38.12
3895.55	-62.12
3898.132	-73.12
3900.713	-70.12
3903.291	-79.12
3905.868	-74.12
3908.442	-77.12
3911.015	-84.12
3913.586	-77.12
3916.155	-73.12
3918.722	-77.12
3921.287	-76.12
3923.85	-82.12
3926.411	-80.12
3928.971	-81.12
3931.528	-78.12
3934.084	-79.12
3936.638	-81.12
3939.19	-85.12
3941.74	-78.12
3944.288	-81.12
3946.834	-77.12
3949.378	-84.12
3951.921	-79.12
3954.462	-77.12
3957	-78.12
3959.537	-77.12
3962.072	-66.12
3964.606	-80.12
3967.137	-80.12
3969.667	-80.12
3972.194	-81.12
3974.72	-82.12
3977.244	-78.12
3979.766	-82.12
3982.286	-73.12
3984.805	-80.12
3987.321	-79.12
3989.836	-80.12
3992.349	-80.12
3994.86	-82.12
3997.369	-80.12
3999.877	-77.12
4002.382	-75.12
4004.886	-75.12
4007.388	-73.12
4009.888	-79.12
4012.386	-78.12
4014.883	-77.12
4017.377	-78.12
4019.87	-76.12
4022.361	-76.12
4024.85	-80.12
4027.338	-74.12
4029.823	-77.12
4032.307	-77.12
4034.789	-76.12
4037.269	-76.12
4039.747	-81.12
4042.224	-76.12
4044.699	-74.12
4047.172	-77.12
4049.643	-75.12
4052.112	-76.12
4054.58	-80.12
4057.046	-72.12
4059.51	-79.12
4061.972	-74.12
4064.432	-74.12
4066.891	-81.12
4069.348	-73.12
4071.803	-75.12
4074.256	-74.12
4076.708	-80.12
4079.158	-83.12
4081.606	-75.12
4084.052	-80.12
4086.497	-78.12
4088.939	-84.12
4091.38	-81.12
4093.819	-82.12
4096.257	-82.12
4098.693	-85.12
4101.127	-83.12
4103.559	-83.12
4105.989	44.88
4108.418	52.88
4110.845	35.88
4113.27	32.88
4115.694	28.88
4118.115	31.88
4120.535	-81.12
4122.954	-80.12
4125.37	-81.12
4127.785	-82.12
4130.198	-78.12
4132.609	-83.12
4135.019	-80.12
4137.427	-84.12
4139.833	-82.12
4142.237	-87.12