File: Data/Raman/2017-10-17 - Joint SERS experiment/ethanol base/silicon_RamanShift_5.txt
Data from silicon_RamanShift_5.txt Node

Date: Tue Oct 17 17:31:54 IDT 2017
User: aro
Spectrometer: QEPB0276
Trigger mode: 0
Integration Time (sec): 5.000000E0
Scans to average: 3
Electric dark correction enabled: true
Nonlinearity correction enabled: false
Boxcar width: 0
XAxis mode: Raman Shifts
Number of Pixels in Spectrum: 1044
>>>>>Begin Spectral Data<<<<<
160.701	-3.58
166.742	3.75
172.777	16.75
178.805	54.08
184.826	156.75
190.841	336.75
196.849	569.75
202.85	742.08
208.845	820.42
214.833	842.42
220.815	858.08
226.789	884.42
232.758	911.75
238.719	940.75
244.674	952.42
250.623	959.42
256.565	953.42
262.5	940.42
268.429	931.08
274.351	914.75
280.267	900.08
286.176	892.75
292.079	885.08
297.975	884.42
303.865	881.75
309.748	875.08
315.625	858.42
321.495	834.42
327.359	810.75
333.217	803.08
339.068	794.08
344.912	777.75
350.751	774.08
356.583	763.42
362.408	756.08
368.227	760.42
374.04	747.75
379.847	752.75
385.647	750.08
391.44	738.75
397.228	733.75
403.009	726.08
408.784	724.08
414.553	732.42
420.315	750.42
426.071	749.75
431.821	717.75
437.565	677.75
443.302	657.42
449.033	638.75
454.758	614.42
460.477	597.75
466.189	580.75
471.896	561.08
477.596	538.75
483.29	515.75
488.978	495.08
494.66	463.75
500.335	423.75
506.005	385.75
511.668	389.42
517.325	452.08
522.977	584.75
528.622	700.08
534.261	758.42
539.894	758.75
545.521	748.75
551.141	736.42
556.756	719.75
562.365	704.42
567.968	701.75
573.565	701.42
579.155	702.75
584.74	677.08
590.319	657.08
595.892	625.08
601.459	608.42
607.02	588.08
612.575	567.42
618.124	564.08
623.667	570.75
629.204	585.42
634.735	588.75
640.261	594.75
645.781	608.08
651.294	627.08
656.802	616.42
662.304	593.08
667.8	589.42
673.29	582.08
678.775	579.75
684.254	566.75
689.726	557.42
695.193	550.08
700.655	543.08
706.11	532.42
711.56	527.42
717.004	525.42
722.442	519.42
727.874	524.42
733.301	526.08
738.722	525.75
744.137	540.75
749.547	548.08
754.951	556.75
760.349	547.08
765.741	533.08
771.128	518.75
776.509	514.75
781.885	515.42
787.254	516.08
792.618	516.42
797.977	516.08
803.33	520.42
808.677	529.08
814.019	544.08
819.355	554.75
824.686	553.08
830.011	525.42
835.33	502.08
840.644	497.75
845.952	492.75
851.255	490.42
856.552	488.75
861.844	494.08
867.13	494.42
872.41	493.75
877.686	486.42
882.955	482.42
888.219	480.42
893.478	487.75
898.731	483.08
903.979	482.42
909.221	481.42
914.458	482.08
919.69	486.42
924.916	475.42
930.136	478.42
935.351	499.42
940.561	506.42
945.766	509.75
950.965	513.42
956.158	509.42
961.347	503.42
966.529	492.08
971.707	481.75
976.879	473.08
982.046	463.42
987.208	449.42
992.364	450.08
997.515	443.08
1002.66	440.42
1007.801	435.42
1012.936	437.75
1018.066	436.75
1023.19	432.75
1028.309	432.42
1033.423	436.42
1038.532	435.08
1043.636	430.42
1048.734	429.08
1053.827	421.42
1058.915	423.08
1063.998	432.75
1069.075	437.08
1074.147	448.08
1079.214	460.75
1084.276	458.42
1089.333	449.75
1094.385	442.08
1099.431	448.75
1104.472	450.08
1109.509	455.08
1114.54	455.75
1119.565	462.08
1124.586	450.08
1129.602	439.75
1134.613	425.75
1139.618	434.75
1144.619	441.75
1149.614	444.08
1154.604	452.42
1159.589	441.42
1164.57	435.08
1169.545	444.42
1174.515	449.42
1179.48	460.42
1184.44	463.75
1189.395	468.75
1194.345	489.42
1199.29	500.75
1204.23	523.42
1209.165	541.42
1214.095	545.75
1219.021	563.08
1223.941	559.42
1228.856	576.42
1233.766	619.75
1238.672	672.42
1243.572	698.42
1248.467	647.42
1253.358	586.75
1258.244	543.08
1263.124	528.42
1268	537.75
1272.871	539.75
1277.737	536.75
1282.599	521.08
1287.455	508.08
1292.306	498.08
1297.153	485.75
1301.995	469.75
1306.832	471.42
1311.664	480.75
1316.491	493.08
1321.314	503.08
1326.132	497.42
1330.945	482.75
1335.753	464.42
1340.556	446.75
1345.354	436.42
1350.148	448.75
1354.937	460.08
1359.722	470.42
1364.501	458.08
1369.276	447.75
1374.046	431.08
1378.811	422.42
1383.572	407.08
1388.327	391.08
1393.079	378.75
1397.825	370.75
1402.567	360.42
1407.304	355.08
1412.036	350.08
1416.764	346.42
1421.487	339.75
1426.205	338.75
1430.919	338.08
1435.628	348.08
1440.333	350.75
1445.032	362.42
1449.727	378.08
1454.418	390.75
1459.104	395.75
1463.785	388.75
1468.462	382.75
1473.134	358.75
1477.802	346.08
1482.465	335.75
1487.123	331.08
1491.777	329.75
1496.426	334.42
1501.071	333.75
1505.711	333.75
1510.347	340.75
1514.978	343.75
1519.604	350.08
1524.226	348.75
1528.844	347.42
1533.457	350.08
1538.065	344.75
1542.669	341.08
1547.269	346.42
1551.864	336.75
1556.454	349.75
1561.041	350.42
1565.622	352.08
1570.199	343.08
1574.772	345.75
1579.34	345.08
1583.904	339.08
1588.464	338.08
1593.019	330.08
1597.569	330.75
1602.115	324.42
1606.657	323.08
1611.195	321.08
1615.728	317.75
1620.256	308.42
1624.78	301.75
1629.3	302.08
1633.816	308.75
1638.327	301.42
1642.834	302.75
1647.336	308.75
1651.834	309.08
1656.328	311.42
1660.817	313.08
1665.302	311.75
1669.783	312.08
1674.259	308.42
1678.732	307.08
1683.199	302.75
1687.663	296.08
1692.122	292.75
1696.577	292.08
1701.028	303.75
1705.474	310.42
1709.917	314.08
1714.355	319.75
1718.788	314.42
1723.218	313.42
1727.643	310.75
1732.064	305.42
1736.481	303.75
1740.893	303.42
1745.301	298.08
1749.705	297.75
1754.105	290.08
1758.501	288.75
1762.893	290.42
1767.28	289.42
1771.663	289.08
1776.042	287.42
1780.417	294.42
1784.787	295.42
1789.154	306.08
1793.516	318.75
1797.874	318.08
1802.228	327.75
1806.578	326.75
1810.924	331.75
1815.266	325.75
1819.603	323.75
1823.937	322.75
1828.266	320.75
1832.591	319.75
1836.913	310.08
1841.23	315.42
1845.543	315.75
1849.852	312.75
1854.156	311.42
1858.457	318.42
1862.754	319.08
1867.047	321.75
1871.335	325.75
1875.62	328.75
1879.9	330.08
1884.177	329.42
1888.449	331.08
1892.718	329.42
1896.982	332.42
1901.243	333.75
1905.499	332.75
1909.752	341.08
1914	340.75
1918.245	344.42
1922.485	348.75
1926.722	356.75
1930.954	361.08
1935.183	367.75
1939.408	369.42
1943.628	369.75
1947.845	373.42
1952.058	377.08
1956.267	375.42
1960.472	377.42
1964.673	373.42
1968.87	374.75
1973.063	369.75
1977.252	370.42
1981.438	367.08
1985.619	368.75
1989.797	368.08
1993.971	369.08
1998.14	376.75
2002.306	371.75
2006.469	370.75
2010.627	376.08
2014.781	378.42
2018.932	384.42
2023.078	380.42
2027.221	381.08
2031.36	379.75
2035.495	377.75
2039.627	379.75
2043.754	375.42
2047.878	379.08
2051.998	384.08
2056.114	387.08
2060.226	392.08
2064.334	390.75
2068.439	399.42
2072.54	399.42
2076.637	406.42
2080.73	413.08
2084.82	413.42
2088.906	416.75
2092.988	426.75
2097.066	425.08
2101.14	427.42
2105.211	427.08
2109.278	437.42
2113.342	433.42
2117.401	435.08
2121.457	438.75
2125.509	437.75
2129.558	440.08
2133.602	445.08
2137.643	446.42
2141.681	450.75
2145.714	451.08
2149.744	456.75
2153.77	455.42
2157.793	459.42
2161.812	460.08
2165.827	455.42
2169.838	457.08
2173.846	454.75
2177.851	455.75
2181.851	451.75
2185.848	454.75
2189.841	459.08
2193.831	455.42
2197.817	456.75
2201.799	466.75
2205.778	466.75
2209.753	469.42
2213.725	480.08
2217.693	485.42
2221.657	491.75
2225.618	493.42
2229.575	503.08
2233.529	506.08
2237.479	510.08
2241.425	510.75
2245.368	509.75
2249.307	515.42
2253.243	513.75
2257.175	524.75
2261.104	510.75
2265.029	518.08
2268.95	519.42
2272.868	524.75
2276.783	521.42
2280.694	530.75
2284.601	533.08
2288.505	537.42
2292.405	528.42
2296.302	539.75
2300.195	536.75
2304.085	537.75
2307.971	539.42
2311.854	535.42
2315.734	537.08
2319.609	536.75
2323.482	536.42
2327.351	536.42
2331.216	545.42
2335.078	540.75
2338.937	544.08
2342.792	546.08
2346.643	547.75
2350.492	549.42
2354.336	565.08
2358.178	563.08
2362.015	570.75
2365.85	581.08
2369.681	585.75
2373.508	592.75
2377.333	594.75
2381.153	602.75
2384.971	600.75
2388.785	607.42
2392.595	610.75
2396.402	609.08
2400.206	615.75
2404.007	624.08
2407.804	623.08
2411.597	624.08
2415.388	633.42
2419.174	642.75
2422.958	642.75
2426.738	654.75
2430.515	656.42
2434.289	657.75
2438.059	662.08
2441.825	665.75
2445.589	668.75
2449.349	673.08
2453.106	672.42
2456.859	675.42
2460.61	678.75
2464.356	676.75
2468.1	677.08
2471.84	685.08
2475.577	694.08
2479.311	702.42
2483.041	709.42
2486.768	714.08
2490.492	722.42
2494.213	732.08
2497.93	735.08
2501.644	747.75
2505.355	755.08
2509.062	755.08
2512.766	767.75
2516.467	767.75
2520.165	781.42
2523.859	784.08
2527.551	795.08
2531.239	803.42
2534.923	795.42
2538.605	801.75
2542.283	814.42
2545.958	811.75
2549.63	823.75
2553.299	832.08
2556.964	830.08
2560.626	838.08
2564.285	845.08
2567.941	854.42
2571.594	853.75
2575.243	862.08
2578.89	861.08
2582.533	870.75
2586.173	869.75
2589.809	873.75
2593.443	874.08
2597.073	887.75
2600.701	883.75
2604.325	894.75
2607.946	899.42
2611.564	906.08
2615.178	906.08
2618.79	910.42
2622.398	920.42
2626.004	921.08
2629.606	917.08
2633.205	918.08
2636.801	921.75
2640.394	925.08
2643.983	920.42
2647.57	925.08
2651.153	919.42
2654.734	916.75
2658.311	921.42
2661.885	919.75
2665.456	919.75
2669.025	917.75
2672.589	923.08
2676.151	918.75
2679.71	922.08
2683.266	924.42
2686.819	923.08
2690.368	917.08
2693.915	918.08
2697.458	909.08
2700.999	910.08
2704.536	911.08
2708.071	913.08
2711.602	909.42
2715.13	914.08
2718.656	903.08
2722.178	910.75
2725.697	924.75
2729.214	921.75
2732.727	936.08
2736.237	945.75
2739.744	953.42
2743.249	967.75
2746.75	984.42
2750.248	998.75
2753.743	1015.42
2757.236	1021.75
2760.725	1038.75
2764.211	1038.75
2767.695	1048.08
2771.175	1051.42
2774.652	1051.42
2778.127	1044.08
2781.598	1056.08
2785.067	1056.08
2788.532	1050.42
2791.995	1049.08
2795.455	1059.42
2798.911	1058.08
2802.365	1057.42
2805.816	1066.08
2809.264	1054.75
2812.709	1051.75
2816.151	1052.75
2819.59	1061.42
2823.026	1071.42
2826.46	1073.08
2829.89	1063.42
2833.318	1069.08
2836.742	1074.42
2840.164	1072.08
2843.583	1077.75
2846.999	1071.42
2850.412	1078.42
2853.822	1089.75
2857.229	1100.42
2860.634	1088.75
2864.035	1100.75
2867.434	1111.75
2870.83	1110.42
2874.223	1116.42
2877.613	1122.42
2881	1110.42
2884.385	1112.08
2887.766	1097.08
2891.145	1098.42
2894.521	1092.08
2897.894	1092.08
2901.264	1085.08
2904.631	1080.75
2907.996	1074.42
2911.358	1070.08
2914.717	1077.75
2918.073	1073.42
2921.426	1065.42
2924.777	1069.08
2928.124	1067.75
2931.469	1069.08
2934.811	1065.42
2938.15	1072.08
2941.487	1065.08
2944.821	1058.08
2948.152	1069.08
2951.48	1054.42
2954.805	1051.75
2958.128	1044.08
2961.447	1046.08
2964.765	1043.42
2968.079	1039.75
2971.39	1043.08
2974.699	1045.75
2978.005	1050.42
2981.308	1059.08
2984.609	1061.42
2987.907	1062.75
2991.202	1075.08
2994.494	1085.75
2997.784	1097.75
3001.07	1097.75
3004.355	1098.75
3007.636	1096.08
3010.915	1091.75
3014.191	1100.42
3017.464	1091.42
3020.734	1072.75
3024.002	1068.08
3027.267	1064.75
3030.53	1051.08
3033.789	1039.75
3037.046	1023.42
3040.301	1025.75
3043.552	1020.42
3046.801	1011.42
3050.048	1017.42
3053.291	1011.08
3056.532	1010.42
3059.771	1006.75
3063.006	1009.75
3066.239	1007.42
3069.469	1016.75
3072.697	1017.42
3075.922	1015.08
3079.144	1018.42
3082.364	1008.75
3085.581	1008.42
3088.795	1003.42
3092.007	1000.08
3095.216	996.08
3098.423	987.08
3101.627	987.75
3104.828	984.42
3108.026	978.75
3111.222	976.42
3114.416	972.42
3117.607	980.42
3120.795	973.42
3123.98	971.42
3127.163	969.08
3130.344	969.42
3133.521	965.42
3136.696	969.42
3139.869	967.08
3143.039	962.42
3146.206	967.75
3149.371	950.08
3152.533	945.08
3155.693	937.08
3158.85	931.42
3162.005	924.08
3165.157	917.75
3168.306	903.08
3171.453	897.42
3174.597	889.42
3177.739	875.42
3180.878	875.08
3184.014	868.42
3187.149	863.75
3190.28	854.75
3193.409	850.08
3196.536	855.08
3199.659	839.08
3202.781	839.42
3205.9	837.08
3209.016	834.08
3212.13	829.42
3215.241	823.42
3218.35	812.75
3221.456	807.42
3224.56	800.75
3227.661	791.42
3230.76	787.42
3233.856	767.75
3236.95	771.75
3240.041	767.42
3243.13	760.08
3246.216	761.08
3249.3	757.42
3252.382	748.42
3255.46	751.42
3258.537	744.42
3261.611	747.42
3264.682	741.08
3267.751	746.42
3270.818	748.42
3273.882	748.42
3276.943	743.42
3280.002	741.08
3283.059	733.08
3286.113	723.42
3289.165	718.75
3292.214	717.08
3295.261	709.08
3298.306	699.08
3301.348	690.75
3304.387	690.42
3307.425	680.08
3310.459	668.42
3313.492	667.08
3316.521	658.42
3319.549	650.42
3322.574	645.08
3325.597	641.08
3328.617	640.42
3331.635	639.42
3334.65	634.42
3337.663	627.75
3340.674	631.08
3343.682	618.08
3346.688	626.08
3349.691	613.75
3352.692	618.42
3355.691	613.75
3358.687	607.08
3361.681	608.08
3364.673	600.42
3367.662	596.75
3370.649	586.75
3373.633	587.75
3376.615	574.42
3379.595	566.08
3382.572	562.42
3385.547	553.08
3388.52	548.75
3391.49	544.75
3394.458	542.42
3397.424	534.75
3400.387	534.08
3403.348	524.75
3406.307	525.42
3409.263	515.42
3412.217	516.75
3415.168	515.08
3418.118	513.75
3421.065	510.75
3424.009	511.08
3426.951	502.42
3429.891	498.42
3432.829	496.75
3435.764	489.42
3438.697	489.42
3441.628	472.42
3444.557	476.08
3447.483	468.75
3450.407	460.42
3453.328	450.42
3456.247	451.08
3459.164	440.42
3462.079	437.42
3464.991	426.75
3467.902	423.42
3470.809	417.42
3473.715	407.42
3476.618	412.08
3479.519	405.75
3482.418	400.42
3485.315	396.08
3488.209	396.42
3491.101	392.42
3493.99	389.75
3496.878	388.08
3499.763	382.42
3502.646	375.75
3505.527	376.75
3508.405	367.42
3511.281	360.08
3514.155	360.75
3517.027	354.75
3519.897	344.42
3522.764	341.75
3525.629	335.42
3528.492	327.08
3531.352	317.08
3534.211	311.42
3537.067	304.42
3539.921	301.42
3542.773	292.75
3545.622	288.42
3548.469	279.75
3551.315	278.75
3554.157	279.08
3556.998	269.08
3559.837	267.08
3562.673	263.08
3565.507	259.42
3568.339	258.42
3571.169	251.08
3573.996	251.42
3576.822	248.75
3579.645	241.42
3582.466	237.08
3585.285	232.75
3588.101	232.75
3590.916	227.42
3593.728	216.75
3596.538	215.08
3599.346	209.42
3602.152	207.75
3604.956	204.08
3607.757	198.75
3610.556	195.42
3613.354	192.75
3616.149	190.08
3618.942	191.75
3621.732	188.08
3624.521	184.75
3627.307	180.42
3630.092	178.08
3632.874	180.42
3635.654	178.42
3638.432	172.42
3641.208	171.42
3643.982	172.08
3646.753	167.08
3649.523	166.75
3652.29	166.08
3655.055	164.42
3657.818	157.75
3660.579	155.42
3663.338	151.08
3666.095	152.42
3668.849	150.75
3671.602	146.75
3674.352	146.42
3677.101	143.42
3679.847	141.75
3682.591	137.42
3685.333	139.75
3688.073	137.42
3690.811	140.42
3693.547	138.42
3696.281	135.42
3699.013	136.42
3701.742	134.75
3704.47	137.75
3707.195	138.08
3709.919	133.42
3712.64	133.42
3715.359	136.42
3718.076	132.75
3720.792	132.75
3723.505	124.42
3726.216	126.75
3728.925	124.75
3731.632	121.75
3734.336	120.08
3737.039	119.42
3739.74	117.08
3742.439	116.42
3745.136	114.75
3747.83	116.42
3750.523	116.42
3753.213	112.08
3755.902	111.08
3758.589	113.08
3761.273	111.75
3763.956	111.08
3766.636	108.08
3769.315	105.42
3771.991	104.08
3774.665	105.08
3777.338	100.75
3780.008	98.42
3782.677	98.08
3785.343	96.75
3788.007	96.08
3790.67	90.75
3793.33	87.42
3795.989	87.42
3798.645	85.42
3801.299	84.75
3803.952	82.75
3806.602	83.08
3809.251	81.08
3811.897	81.08
3814.542	80.42
3817.184	77.42
3819.825	78.75
3822.463	74.08
3825.1	77.08
3827.735	74.75
3830.367	71.42
3832.998	68.75
3835.627	65.08
3838.253	66.75
3840.878	64.08
3843.501	60.42
3846.122	57.75
3848.741	54.42
3851.358	55.42
3853.973	50.75
3856.586	52.42
3859.197	48.08
3861.806	46.42
3864.414	48.08
3867.019	46.42
3869.622	44.75
3872.224	43.75
3874.823	42.75
3877.421	39.08
3880.016	40.08
3882.61	36.08
3885.202	38.08
3887.792	33.75
3890.38	29.42
3892.966	27.08
3895.55	28.75
3898.132	22.75
3900.713	24.42
3903.291	20.42
3905.868	16.42
3908.442	19.08
3911.015	15.42
3913.586	14.42
3916.155	13.42
3918.722	12.75
3921.287	11.42
3923.85	6.75
3926.411	11.08
3928.971	9.08
3931.528	8.08
3934.084	5.08
3936.638	8.08
3939.19	5.08
3941.74	5.75
3944.288	5.08
3946.834	3.08
3949.378	1.75
3951.921	1.75
3954.462	0.42
3957	2.08
3959.537	1.42
3962.072	2.42
3964.606	0.08
3967.137	-0.58
3969.667	0.42
3972.194	-1.58
3974.72	1.08
3977.244	-0.92
3979.766	0.42
3982.286	0.08
3984.805	0.42
3987.321	0.75
3989.836	-1.58
3992.349	-0.58
3994.86	0.42
3997.369	-1.25
3999.877	-1.92
4002.382	-1.25
4004.886	-2.58
4007.388	-1.92
4009.888	-1.58
4012.386	-3.92
4014.883	-3.58
4017.377	-5.92
4019.87	-0.92
4022.361	-3.92
4024.85	-5.58
4027.338	-4.92
4029.823	-4.92
4032.307	-6.92
4034.789	-4.58
4037.269	-5.25
4039.747	-7.92
4042.224	-6.92
4044.699	-6.58
4047.172	-9.25
4049.643	-10.58
4052.112	-7.92
4054.58	-8.92
4057.046	-10.58
4059.51	-10.58
4061.972	-12.92
4064.432	-9.58
4066.891	-9.58
4069.348	-9.25
4071.803	-9.92
4074.256	-9.25
4076.708	-12.25
4079.158	-11.92
4081.606	-11.58
4084.052	-9.58
4086.497	-8.58
4088.939	-9.92
4091.38	-10.92
4093.819	-10.25
4096.257	-17.58
4098.693	-17.92
4101.127	-18.92
4103.559	-19.25
4105.989	-9.92
4108.418	-7.25
4110.845	-7.25
4113.27	-3.58
4115.694	-5.92
4118.115	-4.25
4120.535	-11.92
4122.954	-10.92
4125.37	-11.58
4127.785	-9.25
4130.198	-13.92
4132.609	-12.25
4135.019	-18.58
4137.427	-17.92
4139.833	-16.92
4142.237	-17.58